Folder: projects/Exploratory-Data-Science/Model Testing of Backsheet Color and FTIR Data/FTIR/DampHeat-FTIR

Note: README.md
# Projects

This is a repository of a collection of my reports/projects/research projects and
final materials that I would like to showcase for the public. Basically, it consists
of things that I am proud of. I hope you all enjoy!

File: UL DH 0hr PET 3.029-1.SPA.dpt
3999.71,0.00301
3988.13,0.00193
3976.56,0.00129
3964.99,0.00069
3953.42,0.00017
3941.85,-0.00018
3930.28,-0.00019
3918.71,-0.00016
3907.14,0.00003
3895.57,0.00019
3884,-0.00013
3872.42,0.00011
3860.85,0.00057
3849.28,0.00065
3837.71,-0.00010
3826.14,-0.00006
3814.57,-0.00038
3803,-0.00026
3791.43,-0.00014
3779.86,-0.00029
3768.29,-0.00006
3756.72,0.00048
3745.14,0.00000
3733.57,-0.00036
3722,-0.00074
3710.43,-0.00078
3698.86,-0.00055
3687.29,0.00015
3675.72,-0.00025
3664.15,-0.00037
3652.58,-0.00027
3641.01,-0.00008
3629.43,-0.00070
3617.86,-0.00053
3606.29,-0.00062
3594.72,-0.00051
3583.15,0.00026
3571.58,0.00032
3560.01,0.00035
3548.44,0.00046
3536.87,0.00010
3525.3,-0.00031
3513.72,-0.00066
3502.15,-0.00068
3490.58,-0.00035
3479.01,-0.00013
3467.44,-0.00050
3455.87,0.00000
3444.3,0.00144
3432.73,0.00560
3421.16,0.00257
3409.59,-0.00011
3398.01,-0.00020
3386.44,-0.00011
3374.87,-0.00029
3363.3,-0.00053
3351.73,-0.00038
3340.16,0.00024
3328.59,0.00027
3317.02,-0.00030
3305.45,-0.00015
3293.88,-0.00007
3282.3,-0.00018
3270.73,-0.00001
3259.16,-0.00041
3247.59,-0.00035
3236.02,-0.00010
3224.45,0.00005
3212.88,-0.00029
3201.31,-0.00030
3189.74,-0.00002
3178.17,-0.00002
3166.59,-0.00010
3155.02,-0.00071
3143.45,-0.00077
3131.88,-0.00009
3120.31,-0.00013
3108.74,0.00074
3097.17,0.00055
3085.6,0.00074
3074.03,0.00147
3062.46,0.00201
3050.88,0.00307
3039.31,-0.00046
3027.74,0.00000
3016.17,0.00433
3004.6,0.00420
2993.03,0.00507
2981.46,0.01108
2969.89,0.02605
2958.32,0.02005
2946.75,0.01039
2935.17,0.00774
2923.6,0.01521
2912.03,0.01892
2900.46,0.01093
2888.89,0.00621
2877.32,0.00393
2865.75,0.00456
2854.18,0.01004
2842.61,0.00375
2831.04,0.00015
2819.46,0.00011
2807.89,0.00061
2796.32,0.00033
2784.75,-0.00020
2773.18,-0.00024
2761.61,0.00000
2750.04,0.00020
2738.47,0.00003
2726.9,-0.00024
2715.33,-0.00021
2703.75,-0.00008
2692.18,-0.00024
2680.61,-0.00046
2669.04,-0.00037
2657.47,-0.00013
2645.9,-0.00010
2634.33,0.00016
2622.76,-0.00019
2611.19,-0.00023
2599.62,-0.00006
2588.04,0.00009
2576.47,-0.00013
2564.9,-0.00018
2553.33,-0.00008
2541.76,0.00013
2530.19,0.00019
2518.62,-0.00008
2507.05,-0.00007
2495.48,0.00005
2483.91,0.00000
2472.33,0.00014
2460.76,0.00062
2449.19,0.00135
2437.62,0.00278
2426.05,0.00481
2414.48,0.00717
2402.91,0.00978
2391.34,0.01247
2379.77,0.01209
2368.2,0.00189
2356.63,0.00069
2345.05,0.00402
2333.48,0.00129
2321.91,0.00307
2310.34,0.00636
2298.77,0.00805
2287.2,0.00831
2275.63,0.00665
2264.06,0.00544
2252.49,0.00413
2240.92,0.00280
2229.34,0.00202
2217.77,0.00146
2206.2,0.00091
2194.63,0.00041
2183.06,0.00000
2171.49,0.00097
2159.92,0.00000
2148.35,0.00468
2136.78,0.00722
2125.21,0.01019
2113.63,0.01127
2102.06,0.01049
2090.49,0.00989
2078.92,0.00820
2067.35,0.00631
2055.78,0.00488
2044.21,0.00139
2032.64,0.00000
2021.07,0.00000
2009.5,0.00027
1997.92,0.00151
1986.35,0.00171
1974.78,0.00144
1963.21,0.00749
1951.64,0.00599
1940.07,0.00286
1928.5,0.00117
1916.93,0.00032
1905.36,-0.00007
1893.79,-0.00026
1882.21,-0.00042
1870.64,-0.00034
1859.07,0.00000
1847.5,0.00079
1835.93,0.00221
1824.36,0.00256
1812.79,0.00195
1801.22,0.00094
1789.65,0.00012
1778.08,0.00004
1766.5,0.00207
1754.93,0.01133
1743.36,0.07526
1731.79,0.28307
1720.22,0.59179
1708.65,0.62880
1697.08,0.24657
1685.51,0.13479
1673.94,0.08322
1662.37,0.04332
1650.79,0.02392
1639.22,0.01402
1627.65,0.00778
1616.08,0.00811
1604.51,0.00336
1592.94,-0.00008
1581.37,0.01249
1569.8,0.00322
1558.23,-0.00079
1546.66,-0.00001
1535.08,-0.00020
1523.51,0.00283
1511.94,0.00968
1500.37,0.01957
1488.8,0.00033
1477.23,0.01661
1465.66,0.02127
1454.09,0.02364
1442.52,0.01491
1430.95,0.00209
1419.37,0.01292
1407.8,0.12889
1396.23,0.02467
1384.66,0.02360
1373.09,0.01718
1361.52,0.00196
1349.95,0.01931
1338.38,0.18343
1326.81,0.00372
1315.24,0.00888
1303.66,0.03720
1292.09,0.10467
1280.52,0.18700
1268.95,0.30932
1257.38,0.42764
1245.81,0.53894
1234.24,0.46309
1222.67,0.33651
1211.1,0.19959
1199.53,0.10498
1187.95,0.04078
1176.38,0.02851
1164.81,0.00068
1153.24,0.00850
1141.67,0.05929
1130.1,0.23459
1118.53,0.35509
1106.96,0.38006
1095.39,0.45012
1083.82,0.34797
1072.25,0.21552
1060.67,0.13238
1049.1,0.10573
1037.53,0.07996
1025.96,0.08827
1014.39,0.22747
1002.82,0.08022
991.248,0.04943
979.677,0.04595
968.106,0.08922
956.535,0.04058
944.964,0.01926
933.393,0.00819
921.822,0.00114
910.251,0.00178
898.68,0.01485
887.109,0.01310
875.538,0.08334
863.967,0.03974
852.396,0.05047
840.825,0.04927
829.254,0.02195
817.683,0.01267
806.112,0.01251
794.541,0.02744
782.97,0.01162
771.399,0.00379
759.828,0.00000
748.257,-0.00089
736.686,0.06871
725.115,0.45343
713.544,0.26563
701.973,0.11585
690.402,0.05024
678.831,0.03182
667.26,0.01307
655.689,0.00462
649.904,0.00000

File: UL DH 0hr PET 3.030-1.SPA.dpt
3999.71,0.00243
3988.13,0.00167
3976.56,0.00106
3964.99,0.00063
3953.42,0.00011
3941.85,-0.00013
3930.28,-0.00022
3918.71,-0.00017
3907.14,0.00001
3895.57,0.00009
3884,-0.00011
3872.42,0.00005
3860.85,0.00030
3849.28,0.00037
3837.71,-0.00014
3826.14,-0.00018
3814.57,-0.00036
3803,-0.00010
3791.43,0.00001
3779.86,-0.00009
3768.29,0.00012
3756.72,0.00048
3745.14,0.00000
3733.57,-0.00054
3722,-0.00052
3710.43,-0.00047
3698.86,-0.00018
3687.29,0.00039
3675.72,0.00022
3664.15,0.00020
3652.58,0.00020
3641.01,0.00031
3629.43,-0.00031
3617.86,-0.00011
3606.29,-0.00001
3594.72,0.00000
3583.15,0.00050
3571.58,0.00060
3560.01,0.00064
3548.44,0.00062
3536.87,0.00036
3525.3,-0.00008
3513.72,-0.00036
3502.15,-0.00028
3490.58,-0.00007
3479.01,0.00005
3467.44,-0.00043
3455.87,0.00000
3444.3,0.00101
3432.73,0.00400
3421.16,0.00189
3409.59,0.00003
3398.01,-0.00003
3386.44,-0.00001
3374.87,-0.00025
3363.3,-0.00048
3351.73,-0.00033
3340.16,0.00019
3328.59,0.00023
3317.02,-0.00024
3305.45,-0.00021
3293.88,-0.00006
3282.3,-0.00014
3270.73,-0.00011
3259.16,-0.00039
3247.59,-0.00033
3236.02,-0.00009
3224.45,-0.00002
3212.88,-0.00025
3201.31,-0.00035
3189.74,-0.00015
3178.17,-0.00013
3166.59,-0.00017
3155.02,-0.00073
3143.45,-0.00068
3131.88,-0.00016
3120.31,-0.00013
3108.74,0.00055
3097.17,0.00048
3085.6,0.00055
3074.03,0.00118
3062.46,0.00167
3050.88,0.00264
3039.31,-0.00022
3027.74,0.00000
3016.17,0.00332
3004.6,0.00310
2993.03,0.00371
2981.46,0.00844
2969.89,0.02053
2958.32,0.01582
2946.75,0.00841
2935.17,0.00616
2923.6,0.01228
2912.03,0.01561
2900.46,0.00931
2888.89,0.00531
2877.32,0.00338
2865.75,0.00388
2854.18,0.00838
2842.61,0.00336
2831.04,0.00024
2819.46,0.00009
2807.89,0.00044
2796.32,0.00031
2784.75,-0.00013
2773.18,-0.00016
2761.61,0.00002
2750.04,0.00011
2738.47,0.00002
2726.9,-0.00024
2715.33,-0.00020
2703.75,-0.00007
2692.18,-0.00020
2680.61,-0.00036
2669.04,-0.00022
2657.47,0.00001
2645.9,-0.00003
2634.33,0.00026
2622.76,-0.00005
2611.19,-0.00013
2599.62,-0.00002
2588.04,0.00002
2576.47,-0.00006
2564.9,-0.00005
2553.33,-0.00003
2541.76,0.00031
2530.19,0.00063
2518.62,0.00070
2507.05,0.00115
2495.48,0.00174
2483.91,0.00215
2472.33,0.00294
2460.76,0.00406
2449.19,0.00527
2437.62,0.00708
2426.05,0.00945
2414.48,0.01210
2402.91,0.01512
2391.34,0.01819
2379.77,0.01737
2368.2,0.00264
2356.63,0.00139
2345.05,0.00716
2333.48,0.00361
2321.91,0.00694
2310.34,0.01201
2298.77,0.01436
2287.2,0.01445
2275.63,0.01238
2264.06,0.01081
2252.49,0.00921
2240.92,0.00747
2229.34,0.00641
2217.77,0.00529
2206.2,0.00410
2194.63,0.00311
2183.06,0.00191
2171.49,0.00256
2159.92,0.00000
2148.35,0.00561
2136.78,0.00851
2125.21,0.01181
2113.63,0.01269
2102.06,0.01185
2090.49,0.01132
2078.92,0.00959
2067.35,0.00750
2055.78,0.00609
2044.21,0.00207
2032.64,0.00005
2021.07,0.00020
2009.5,0.00049
1997.92,0.00200
1986.35,0.00199
1974.78,0.00095
1963.21,0.00632
1951.64,0.00525
1940.07,0.00257
1928.5,0.00116
1916.93,0.00038
1905.36,-0.00007
1893.79,-0.00020
1882.21,-0.00033
1870.64,-0.00032
1859.07,-0.00009
1847.5,0.00062
1835.93,0.00185
1824.36,0.00198
1812.79,0.00146
1801.22,0.00059
1789.65,-0.00010
1778.08,-0.00010
1766.5,0.00174
1754.93,0.00962
1743.36,0.06387
1731.79,0.24295
1720.22,0.48945
1708.65,0.51780
1697.08,0.20419
1685.51,0.11141
1673.94,0.06869
1662.37,0.03601
1650.79,0.01991
1639.22,0.01169
1627.65,0.00647
1616.08,0.00676
1604.51,0.00286
1592.94,0.00000
1581.37,0.01079
1569.8,0.00291
1558.23,-0.00064
1546.66,-0.00003
1535.08,-0.00016
1523.51,0.00240
1511.94,0.00822
1500.37,0.01702
1488.8,0.00018
1477.23,0.01342
1465.66,0.01734
1454.09,0.01949
1442.52,0.01226
1430.95,0.00167
1419.37,0.01072
1407.8,0.10793
1396.23,0.02092
1384.66,0.02070
1373.09,0.01430
1361.52,0.00167
1349.95,0.01632
1338.38,0.16553
1326.81,0.00334
1315.24,0.00653
1303.66,0.03026
1292.09,0.08723
1280.52,0.15594
1268.95,0.25746
1257.38,0.35011
1245.81,0.44790
1234.24,0.41255
1222.67,0.31849
1211.1,0.19931
1199.53,0.10836
1187.95,0.04352
1176.38,0.02748
1164.81,0.00075
1153.24,0.00659
1141.67,0.04937
1130.1,0.19968
1118.53,0.30972
1106.96,0.33195
1095.39,0.39076
1083.82,0.31818
1072.25,0.21325
1060.67,0.13716
1049.1,0.10867
1037.53,0.08072
1025.96,0.08099
1014.39,0.22001
1002.82,0.08925
991.248,0.05641
979.677,0.05027
968.106,0.09299
956.535,0.04853
944.964,0.02723
933.393,0.01570
921.822,0.00811
910.251,0.00749
898.68,0.01864
887.109,0.01640
875.538,0.07766
863.967,0.03907
852.396,0.04926
840.825,0.04998
829.254,0.02478
817.683,0.01571
806.112,0.01498
794.541,0.02796
782.97,0.01371
771.399,0.00599
759.828,0.00172
748.257,0.00000
736.686,0.06430
725.115,0.41834
713.544,0.24122
701.973,0.10592
690.402,0.04642
678.831,0.02911
667.26,0.01063
655.689,0.00355
649.904,0.00000

File: UL DH 0hr PET 3.030-2.SPA.dpt
3999.71,0.00288
3988.13,0.00191
3976.56,0.00126
3964.99,0.00061
3953.42,0.00012
3941.85,-0.00023
3930.28,-0.00032
3918.71,-0.00023
3907.14,-0.00002
3895.57,0.00002
3884,-0.00035
3872.42,-0.00042
3860.85,-0.00021
3849.28,-0.00006
3837.71,-0.00047
3826.14,-0.00043
3814.57,-0.00047
3803,-0.00022
3791.43,-0.00014
3779.86,-0.00027
3768.29,-0.00016
3756.72,0.00024
3745.14,-0.00026
3733.57,-0.00093
3722,-0.00085
3710.43,-0.00034
3698.86,0.00009
3687.29,0.00078
3675.72,0.00033
3664.15,0.00020
3652.58,0.00010
3641.01,0.00014
3629.43,-0.00080
3617.86,-0.00046
3606.29,-0.00051
3594.72,-0.00050
3583.15,0.00015
3571.58,0.00031
3560.01,0.00049
3548.44,0.00045
3536.87,0.00020
3525.3,-0.00027
3513.72,-0.00058
3502.15,-0.00050
3490.58,-0.00031
3479.01,-0.00015
3467.44,-0.00063
3455.87,0.00000
3444.3,0.00118
3432.73,0.00497
3421.16,0.00201
3409.59,0.00003
3398.01,0.00174
3386.44,0.00117
3374.87,-0.00055
3363.3,-0.00109
3351.73,-0.00081
3340.16,-0.00007
3328.59,0.00012
3317.02,-0.00021
3305.45,-0.00011
3293.88,0.00008
3282.3,-0.00012
3270.73,-0.00022
3259.16,-0.00067
3247.59,-0.00057
3236.02,-0.00038
3224.45,-0.00011
3212.88,-0.00021
3201.31,0.00006
3189.74,0.00069
3178.17,0.00044
3166.59,-0.00030
3155.02,-0.00110
3143.45,-0.00099
3131.88,-0.00022
3120.31,0.00000
3108.74,0.00091
3097.17,0.00066
3085.6,0.00090
3074.03,0.00161
3062.46,0.00209
3050.88,0.00309
3039.31,-0.00038
3027.74,0.00000
3016.17,0.00430
3004.6,0.00443
2993.03,0.00513
2981.46,0.01123
2969.89,0.02608
2958.32,0.02164
2946.75,0.01222
2935.17,0.01165
2923.6,0.02587
2912.03,0.02695
2900.46,0.01461
2888.89,0.00836
2877.32,0.00549
2865.75,0.00632
2854.18,0.01447
2842.61,0.00691
2831.04,0.00057
2819.46,0.00000
2807.89,0.00037
2796.32,0.00015
2784.75,-0.00032
2773.18,-0.00033
2761.61,-0.00009
2750.04,0.00008
2738.47,-0.00001
2726.9,-0.00033
2715.33,-0.00025
2703.75,-0.00009
2692.18,-0.00030
2680.61,-0.00045
2669.04,-0.00034
2657.47,-0.00003
2645.9,-0.00007
2634.33,0.00026
2622.76,-0.00012
2611.19,-0.00017
2599.62,-0.00005
2588.04,0.00016
2576.47,0.00023
2564.9,0.00046
2553.33,0.00088
2541.76,0.00152
2530.19,0.00233
2518.62,0.00285
2507.05,0.00370
2495.48,0.00473
2483.91,0.00555
2472.33,0.00676
2460.76,0.00846
2449.19,0.01026
2437.62,0.01290
2426.05,0.01602
2414.48,0.01950
2402.91,0.02336
2391.34,0.02728
2379.77,0.02566
2368.2,0.00403
2356.63,0.00204
2345.05,0.01032
2333.48,0.00515
2321.91,0.00991
2310.34,0.01754
2298.77,0.02088
2287.2,0.02073
2275.63,0.01809
2264.06,0.01595
2252.49,0.01375
2240.92,0.01124
2229.34,0.00957
2217.77,0.00784
2206.2,0.00637
2194.63,0.00473
2183.06,0.00322
2171.49,0.00337
2159.92,0.00000
2148.35,0.00609
2136.78,0.00906
2125.21,0.01255
2113.63,0.01350
2102.06,0.01255
2090.49,0.01193
2078.92,0.01011
2067.35,0.00792
2055.78,0.00644
2044.21,0.00212
2032.64,0.00005
2021.07,0.00020
2009.5,0.00030
1997.92,0.00217
1986.35,0.00231
1974.78,0.00123
1963.21,0.00702
1951.64,0.00595
1940.07,0.00296
1928.5,0.00129
1916.93,0.00047
1905.36,0.00000
1893.79,-0.00023
1882.21,-0.00042
1870.64,-0.00045
1859.07,-0.00011
1847.5,0.00066
1835.93,0.00193
1824.36,0.00222
1812.79,0.00166
1801.22,0.00069
1789.65,-0.00012
1778.08,-0.00030
1766.5,0.00161
1754.93,0.01068
1743.36,0.07376
1731.79,0.27526
1720.22,0.56799
1708.65,0.60497
1697.08,0.23815
1685.51,0.13043
1673.94,0.08063
1662.37,0.04269
1650.79,0.02668
1639.22,0.01699
1627.65,0.00972
1616.08,0.00844
1604.51,0.00345
1592.94,0.00000
1581.37,0.01231
1569.8,0.00329
1558.23,-0.00067
1546.66,-0.00013
1535.08,-0.00027
1523.51,0.00268
1511.94,0.00935
1500.37,0.01896
1488.8,0.00023
1477.23,0.01587
1465.66,0.02181
1454.09,0.02317
1442.52,0.01422
1430.95,0.00180
1419.37,0.01313
1407.8,0.12433
1396.23,0.02375
1384.66,0.02230
1373.09,0.01652
1361.52,0.00182
1349.95,0.01850
1338.38,0.17797
1326.81,0.00368
1315.24,0.00806
1303.66,0.03548
1292.09,0.10071
1280.52,0.17944
1268.95,0.29584
1257.38,0.40970
1245.81,0.51872
1234.24,0.45463
1222.67,0.33142
1211.1,0.19824
1199.53,0.10454
1187.95,0.04087
1176.38,0.02804
1164.81,0.00058
1153.24,0.00783
1141.67,0.05680
1130.1,0.22373
1118.53,0.34249
1106.96,0.36802
1095.39,0.43917
1083.82,0.34338
1072.25,0.21469
1060.67,0.13240
1049.1,0.10448
1037.53,0.07883
1025.96,0.08548
1014.39,0.22478
1002.82,0.08069
991.248,0.04953
979.677,0.04583
968.106,0.08823
956.535,0.04083
944.964,0.01952
933.393,0.00839
921.822,0.00119
910.251,0.00162
898.68,0.01436
887.109,0.01280
875.538,0.08117
863.967,0.03900
852.396,0.04959
840.825,0.04885
829.254,0.02222
817.683,0.01330
806.112,0.01299
794.541,0.02767
782.97,0.01221
771.399,0.00441
759.828,0.00045
748.257,-0.00049
736.686,0.06824
725.115,0.44240
713.544,0.25869
701.973,0.11366
690.402,0.04906
678.831,0.03064
667.26,0.00964
655.689,0.00360
649.904,0.00000

File: UL DH 500hr PET 3.080-1.SPA.dpt
3999.71,0.00283
3988.13,0.00196
3976.56,0.00113
3964.99,0.00067
3953.42,0.00011
3941.85,-0.00026
3930.28,-0.00033
3918.71,-0.00036
3907.14,-0.00017
3895.57,-0.00010
3884,-0.00040
3872.42,-0.00050
3860.85,-0.00044
3849.28,-0.00017
3837.71,-0.00016
3826.14,-0.00040
3814.57,-0.00029
3803,-0.00012
3791.43,-0.00011
3779.86,-0.00037
3768.29,-0.00019
3756.72,0.00007
3745.14,-0.00004
3733.57,-0.00043
3722,-0.00060
3710.43,-0.00055
3698.86,-0.00027
3687.29,0.00063
3675.72,-0.00001
3664.15,-0.00022
3652.58,-0.00012
3641.01,0.00020
3629.43,-0.00019
3617.86,-0.00022
3606.29,-0.00020
3594.72,-0.00007
3583.15,0.00052
3571.58,0.00067
3560.01,0.00088
3548.44,0.00099
3536.87,0.00060
3525.3,0.00014
3513.72,-0.00028
3502.15,-0.00044
3490.58,-0.00035
3479.01,-0.00010
3467.44,-0.00044
3455.87,0.00000
3444.3,0.00132
3432.73,0.00541
3421.16,0.00242
3409.59,0.00016
3398.01,-0.00033
3386.44,-0.00021
3374.87,-0.00017
3363.3,-0.00046
3351.73,-0.00030
3340.16,0.00027
3328.59,0.00025
3317.02,-0.00033
3305.45,-0.00026
3293.88,-0.00021
3282.3,-0.00020
3270.73,-0.00006
3259.16,-0.00048
3247.59,-0.00049
3236.02,-0.00015
3224.45,-0.00002
3212.88,-0.00031
3201.31,-0.00040
3189.74,-0.00025
3178.17,-0.00016
3166.59,-0.00008
3155.02,-0.00061
3143.45,-0.00059
3131.88,0.00002
3120.31,-0.00009
3108.74,0.00066
3097.17,0.00047
3085.6,0.00069
3074.03,0.00153
3062.46,0.00204
3050.88,0.00319
3039.31,-0.00037
3027.74,0.00000
3016.17,0.00444
3004.6,0.00395
2993.03,0.00468
2981.46,0.01052
2969.89,0.02600
2958.32,0.01869
2946.75,0.00976
2935.17,0.00567
2923.6,0.00776
2912.03,0.01201
2900.46,0.00931
2888.89,0.00529
2877.32,0.00358
2865.75,0.00411
2854.18,0.00600
2842.61,0.00196
2831.04,0.00002
2819.46,0.00013
2807.89,0.00072
2796.32,0.00046
2784.75,0.00001
2773.18,-0.00005
2761.61,0.00015
2750.04,0.00034
2738.47,0.00024
2726.9,-0.00016
2715.33,-0.00003
2703.75,0.00009
2692.18,-0.00013
2680.61,-0.00038
2669.04,-0.00029
2657.47,-0.00013
2645.9,-0.00005
2634.33,0.00031
2622.76,-0.00006
2611.19,-0.00012
2599.62,-0.00004
2588.04,0.00004
2576.47,-0.00017
2564.9,-0.00025
2553.33,-0.00006
2541.76,0.00005
2530.19,0.00024
2518.62,0.00001
2507.05,0.00006
2495.48,0.00025
2483.91,0.00001
2472.33,0.00003
2460.76,0.00041
2449.19,0.00106
2437.62,0.00227
2426.05,0.00407
2414.48,0.00626
2402.91,0.00869
2391.34,0.01100
2379.77,0.01078
2368.2,0.00198
2356.63,0.00063
2345.05,0.00369
2333.48,0.00159
2321.91,0.00302
2310.34,0.00599
2298.77,0.00759
2287.2,0.00801
2275.63,0.00658
2264.06,0.00548
2252.49,0.00423
2240.92,0.00285
2229.34,0.00207
2217.77,0.00154
2206.2,0.00116
2194.63,0.00044
2183.06,0.00000
2171.49,0.00134
2159.92,0.00000
2148.35,0.00556
2136.78,0.00876
2125.21,0.01195
2113.63,0.01317
2102.06,0.01247
2090.49,0.01171
2078.92,0.00975
2067.35,0.00773
2055.78,0.00580
2044.21,0.00194
2032.64,0.00000
2021.07,0.00012
2009.5,0.00039
1997.92,0.00174
1986.35,0.00169
1974.78,0.00103
1963.21,0.00719
1951.64,0.00617
1940.07,0.00316
1928.5,0.00151
1916.93,0.00055
1905.36,0.00016
1893.79,-0.00014
1882.21,-0.00029
1870.64,-0.00021
1859.07,0.00000
1847.5,0.00079
1835.93,0.00221
1824.36,0.00259
1812.79,0.00186
1801.22,0.00090
1789.65,0.00012
1778.08,0.00011
1766.5,0.00216
1754.93,0.01100
1743.36,0.07304
1731.79,0.27986
1720.22,0.58947
1708.65,0.59594
1697.08,0.22589
1685.51,0.12261
1673.94,0.07473
1662.37,0.03812
1650.79,0.02087
1639.22,0.01247
1627.65,0.00734
1616.08,0.00828
1604.51,0.00340
1592.94,0.00000
1581.37,0.01251
1569.8,0.00344
1558.23,0.00004
1546.66,0.00034
1535.08,-0.00009
1523.51,0.00293
1511.94,0.01015
1500.37,0.01918
1488.8,0.00029
1477.23,0.01533
1465.66,0.01965
1454.09,0.02208
1442.52,0.01401
1430.95,0.00193
1419.37,0.01294
1407.8,0.12297
1396.23,0.02395
1384.66,0.02403
1373.09,0.01663
1361.52,0.00198
1349.95,0.01921
1338.38,0.19240
1326.81,0.00418
1315.24,0.00814
1303.66,0.03491
1292.09,0.09849
1280.52,0.17761
1268.95,0.29626
1257.38,0.40913
1245.81,0.52346
1234.24,0.45588
1222.67,0.34450
1211.1,0.21369
1199.53,0.11440
1187.95,0.04563
1176.38,0.02926
1164.81,0.00084
1153.24,0.00784
1141.67,0.05724
1130.1,0.23241
1118.53,0.35619
1106.96,0.38036
1095.39,0.44012
1083.82,0.34357
1072.25,0.22190
1060.67,0.14077
1049.1,0.11112
1037.53,0.08274
1025.96,0.08913
1014.39,0.23096
1002.82,0.08850
991.248,0.05508
979.677,0.04999
968.106,0.09593
956.535,0.04627
944.964,0.02379
933.393,0.01197
921.822,0.00429
910.251,0.00430
898.68,0.01683
887.109,0.01455
875.538,0.08326
863.967,0.04030
852.396,0.05174
840.825,0.05157
829.254,0.02414
817.683,0.01458
806.112,0.01445
794.541,0.02901
782.97,0.01348
771.399,0.00550
759.828,0.00147
748.257,0.00000
736.686,0.06801
725.115,0.45185
713.544,0.26741
701.973,0.11641
690.402,0.05122
678.831,0.03289
667.26,0.01430
655.689,0.00525
649.904,0.00000

File: UL DH 500hr PET 3.080-2.SPA.dpt
3999.71,0.00202
3988.13,0.00139
3976.56,0.00081
3964.99,0.00039
3953.42,0.00004
3941.85,-0.00019
3930.28,-0.00026
3918.71,-0.00032
3907.14,-0.00006
3895.57,-0.00006
3884,-0.00028
3872.42,-0.00045
3860.85,-0.00031
3849.28,-0.00014
3837.71,-0.00020
3826.14,-0.00038
3814.57,-0.00030
3803,-0.00017
3791.43,-0.00009
3779.86,-0.00019
3768.29,0.00004
3756.72,0.00021
3745.14,-0.00002
3733.57,-0.00083
3722,-0.00068
3710.43,-0.00011
3698.86,0.00000
3687.29,0.00078
3675.72,0.00046
3664.15,0.00047
3652.58,0.00026
3641.01,0.00029
3629.43,-0.00054
3617.86,-0.00022
3606.29,-0.00017
3594.72,-0.00023
3583.15,0.00032
3571.58,0.00042
3560.01,0.00047
3548.44,0.00060
3536.87,0.00030
3525.3,0.00005
3513.72,-0.00019
3502.15,-0.00030
3490.58,-0.00027
3479.01,-0.00013
3467.44,-0.00046
3455.87,-0.00024
3444.3,0.00033
3432.73,0.00259
3421.16,0.00108
3409.59,-0.00019
3398.01,0.00009
3386.44,0.00006
3374.87,-0.00011
3363.3,-0.00023
3351.73,-0.00015
3340.16,0.00015
3328.59,0.00020
3317.02,-0.00009
3305.45,-0.00003
3293.88,-0.00004
3282.3,0.00002
3270.73,0.00012
3259.16,-0.00021
3247.59,-0.00033
3236.02,-0.00007
3224.45,-0.00001
3212.88,-0.00014
3201.31,-0.00014
3189.74,0.00009
3178.17,0.00005
3166.59,-0.00011
3155.02,-0.00048
3143.45,-0.00049
3131.88,-0.00011
3120.31,-0.00005
3108.74,0.00041
3097.17,0.00032
3085.6,0.00045
3074.03,0.00090
3062.46,0.00117
3050.88,0.00197
3039.31,-0.00022
3027.74,0.00005
3016.17,0.00246
3004.6,0.00199
2993.03,0.00216
2981.46,0.00528
2969.89,0.01480
2958.32,0.01139
2946.75,0.00624
2935.17,0.00468
2923.6,0.00831
2912.03,0.00940
2900.46,0.00676
2888.89,0.00372
2877.32,0.00238
2865.75,0.00297
2854.18,0.00558
2842.61,0.00236
2831.04,0.00015
2819.46,0.00005
2807.89,0.00038
2796.32,0.00026
2784.75,-0.00004
2773.18,-0.00002
2761.61,0.00013
2750.04,0.00026
2738.47,0.00016
2726.9,-0.00011
2715.33,-0.00007
2703.75,0.00007
2692.18,-0.00012
2680.61,-0.00021
2669.04,-0.00015
2657.47,-0.00002
2645.9,-0.00002
2634.33,0.00022
2622.76,0.00001
2611.19,0.00004
2599.62,0.00021
2588.04,0.00089
2576.47,0.00142
2564.9,0.00200
2553.33,0.00284
2541.76,0.00374
2530.19,0.00478
2518.62,0.00562
2507.05,0.00674
2495.48,0.00803
2483.91,0.00905
2472.33,0.01035
2460.76,0.01189
2449.19,0.01366
2437.62,0.01589
2426.05,0.01856
2414.48,0.02152
2402.91,0.02461
2391.34,0.02772
2379.77,0.02552
2368.2,0.00437
2356.63,0.00184
2345.05,0.00999
2333.48,0.00566
2321.91,0.01005
2310.34,0.01796
2298.77,0.02095
2287.2,0.02107
2275.63,0.01850
2264.06,0.01640
2252.49,0.01417
2240.92,0.01183
2229.34,0.01009
2217.77,0.00819
2206.2,0.00647
2194.63,0.00444
2183.06,0.00264
2171.49,0.00267
2159.92,0.00000
2148.35,0.00523
2136.78,0.00788
2125.21,0.01067
2113.63,0.01162
2102.06,0.01098
2090.49,0.01044
2078.92,0.00879
2067.35,0.00712
2055.78,0.00550
2044.21,0.00202
2032.64,-0.00002
2021.07,0.00000
2009.5,0.00036
1997.92,0.00166
1986.35,0.00146
1974.78,0.00079
1963.21,0.00545
1951.64,0.00475
1940.07,0.00252
1928.5,0.00124
1916.93,0.00054
1905.36,0.00026
1893.79,-0.00003
1882.21,-0.00019
1870.64,-0.00018
1859.07,-0.00003
1847.5,0.00057
1835.93,0.00155
1824.36,0.00184
1812.79,0.00129
1801.22,0.00059
1789.65,0.00004
1778.08,-0.00004
1766.5,0.00127
1754.93,0.00735
1743.36,0.05127
1731.79,0.19770
1720.22,0.39006
1708.65,0.44468
1697.08,0.18798
1685.51,0.10215
1673.94,0.06375
1662.37,0.03421
1650.79,0.01994
1639.22,0.01213
1627.65,0.00688
1616.08,0.00634
1604.51,0.00272
1592.94,0.00000
1581.37,0.00882
1569.8,0.00216
1558.23,-0.00050
1546.66,0.00012
1535.08,-0.00020
1523.51,0.00208
1511.94,0.00772
1500.37,0.01477
1488.8,0.00018
1477.23,0.01111
1465.66,0.01462
1454.09,0.01600
1442.52,0.00998
1430.95,0.00133
1419.37,0.00952
1407.8,0.09132
1396.23,0.01789
1384.66,0.01820
1373.09,0.01222
1361.52,0.00148
1349.95,0.01418
1338.38,0.14785
1326.81,0.00316
1315.24,0.00548
1303.66,0.02536
1292.09,0.07319
1280.52,0.13242
1268.95,0.21858
1257.38,0.29286
1245.81,0.37838
1234.24,0.37035
1222.67,0.29624
1211.1,0.19061
1199.53,0.10596
1187.95,0.04423
1176.38,0.02622
1164.81,0.00113
1153.24,0.00522
1141.67,0.04203
1130.1,0.17480
1118.53,0.27076
1106.96,0.28988
1095.39,0.33880
1083.82,0.28864
1072.25,0.20378
1060.67,0.13429
1049.1,0.10377
1037.53,0.07743
1025.96,0.07430
1014.39,0.20560
1002.82,0.09021
991.248,0.05819
979.677,0.05107
968.106,0.09192
956.535,0.05136
944.964,0.03118
933.393,0.02002
921.822,0.01241
910.251,0.01099
898.68,0.02046
887.109,0.01758
875.538,0.07074
863.967,0.03739
852.396,0.04709
840.825,0.04936
829.254,0.02589
817.683,0.01699
806.112,0.01593
794.541,0.02739
782.97,0.01419
771.399,0.00642
759.828,0.00176
748.257,0.00000
736.686,0.05930
725.115,0.38420
713.544,0.21811
701.973,0.09677
690.402,0.04313
678.831,0.02740
667.26,0.00915
655.689,0.00448
649.904,0.00000