Folder: projects/Exploratory-Data-Science/Model Testing of Backsheet Color and FTIR Data/FTIR/DampHeat-FTIR (part 2)

File: UL DH 1000HR PET 3.079-1.SPA.dpt
3999.71,0.00191
3988.13,0.00118
3976.56,0.00075
3964.99,0.00033
3953.42,0.00006
3941.85,-0.00007
3930.28,-0.00019
3918.71,-0.00015
3907.14,0.00029
3895.57,0.00040
3884,0.00039
3872.42,0.00071
3860.85,0.00139
3849.28,0.00167
3837.71,0.00028
3826.14,0.00089
3814.57,0.00042
3803,0.00037
3791.43,0.00081
3779.86,0.00068
3768.29,0.00084
3756.72,0.00111
3745.14,0.00000
3733.57,0.00031
3722,0.00023
3710.43,-0.00031
3698.86,0.00031
3687.29,0.00012
3675.72,-0.00050
3664.15,0.00045
3652.58,0.00059
3641.01,0.00103
3629.43,-0.00009
3617.86,0.00002
3606.29,0.00006
3594.72,0.00010
3583.15,0.00033
3571.58,0.00033
3560.01,0.00048
3548.44,0.00065
3536.87,0.00053
3525.3,0.00008
3513.72,-0.00007
3502.15,-0.00025
3490.58,-0.00013
3479.01,-0.00010
3467.44,-0.00029
3455.87,-0.00020
3444.3,0.00047
3432.73,0.00323
3421.16,0.00130
3409.59,-0.00005
3398.01,0.00108
3386.44,0.00083
3374.87,-0.00014
3363.3,-0.00089
3351.73,-0.00094
3340.16,-0.00032
3328.59,-0.00009
3317.02,0.00008
3305.45,0.00127
3293.88,0.00250
3282.3,0.00221
3270.73,0.00095
3259.16,-0.00017
3247.59,-0.00058
3236.02,-0.00045
3224.45,-0.00011
3212.88,-0.00009
3201.31,0.00010
3189.74,0.00042
3178.17,0.00035
3166.59,-0.00013
3155.02,-0.00069
3143.45,-0.00067
3131.88,-0.00013
3120.31,0.00000
3108.74,0.00074
3097.17,0.00087
3085.6,0.00122
3074.03,0.00162
3062.46,0.00177
3050.88,0.00256
3039.31,-0.00017
3027.74,0.00000
3016.17,0.00343
3004.6,0.00285
2993.03,0.00308
2981.46,0.00727
2969.89,0.01905
2958.32,0.01524
2946.75,0.00965
2935.17,0.01022
2923.6,0.01990
2912.03,0.02079
2900.46,0.01214
2888.89,0.00678
2877.32,0.00452
2865.75,0.00531
2854.18,0.01184
2842.61,0.00581
2831.04,0.00062
2819.46,0.00004
2807.89,0.00037
2796.32,0.00018
2784.75,-0.00017
2773.18,-0.00018
2761.61,0.00002
2750.04,0.00018
2738.47,0.00004
2726.9,-0.00020
2715.33,-0.00011
2703.75,0.00000
2692.18,-0.00019
2680.61,-0.00020
2669.04,-0.00013
2657.47,-0.00002
2645.9,0.00007
2634.33,0.00052
2622.76,0.00019
2611.19,0.00006
2599.62,0.00007
2588.04,0.00021
2576.47,0.00006
2564.9,0.00014
2553.33,0.00020
2541.76,0.00018
2530.19,0.00030
2518.62,0.00003
2507.05,0.00002
2495.48,0.00010
2483.91,-0.00001
2472.33,-0.00013
2460.76,-0.00007
2449.19,-0.00002
2437.62,-0.00001
2426.05,0.00010
2414.48,0.00032
2402.91,0.00082
2391.34,0.00136
2379.77,0.00170
2368.2,0.00206
2356.63,0.00149
2345.05,0.00128
2333.48,0.00157
2321.91,0.00138
2310.34,0.00081
2298.77,0.00122
2287.2,0.00200
2275.63,0.00141
2264.06,0.00124
2252.49,0.00071
2240.92,0.00014
2229.34,0.00027
2217.77,0.00016
2206.2,0.00016
2194.63,0.00025
2183.06,0.00009
2171.49,0.00153
2159.92,0.00001
2148.35,0.00532
2136.78,0.00829
2125.21,0.01158
2113.63,0.01299
2102.06,0.01219
2090.49,0.01151
2078.92,0.00996
2067.35,0.00811
2055.78,0.00631
2044.21,0.00242
2032.64,0.00012
2021.07,0.00006
2009.5,0.00046
1997.92,0.00182
1986.35,0.00212
1974.78,0.00093
1963.21,0.00568
1951.64,0.00492
1940.07,0.00281
1928.5,0.00137
1916.93,0.00062
1905.36,0.00018
1893.79,-0.00006
1882.21,-0.00016
1870.64,-0.00022
1859.07,0.00000
1847.5,0.00068
1835.93,0.00188
1824.36,0.00194
1812.79,0.00134
1801.22,0.00063
1789.65,-0.00000
1778.08,-0.00005
1766.5,0.00149
1754.93,0.00849
1743.36,0.05792
1731.79,0.22184
1720.22,0.44523
1708.65,0.47306
1697.08,0.19161
1685.51,0.10345
1673.94,0.06413
1662.37,0.03431
1650.79,0.02384
1639.22,0.01981
1627.65,0.00947
1616.08,0.00738
1604.51,0.00304
1592.94,-0.00003
1581.37,0.01089
1569.8,0.00454
1558.23,0.00226
1546.66,0.00235
1535.08,0.00014
1523.51,0.00182
1511.94,0.00760
1500.37,0.01578
1488.8,0.00017
1477.23,0.01228
1465.66,0.01744
1454.09,0.01797
1442.52,0.01126
1430.95,0.00163
1419.37,0.01092
1407.8,0.10005
1396.23,0.01946
1384.66,0.01969
1373.09,0.01333
1361.52,0.00156
1349.95,0.01539
1338.38,0.16092
1326.81,0.00346
1315.24,0.00583
1303.66,0.02794
1292.09,0.07974
1280.52,0.14347
1268.95,0.23632
1257.38,0.31889
1245.81,0.40999
1234.24,0.38581
1222.67,0.30573
1211.1,0.19806
1199.53,0.10989
1187.95,0.04543
1176.38,0.02752
1164.81,0.00097
1153.24,0.00582
1141.67,0.04623
1130.1,0.18908
1118.53,0.29262
1106.96,0.31319
1095.39,0.36274
1083.82,0.30149
1072.25,0.20976
1060.67,0.13902
1049.1,0.10831
1037.53,0.08083
1025.96,0.07934
1014.39,0.21293
1002.82,0.09319
991.248,0.06028
979.677,0.05320
968.106,0.09529
956.535,0.05252
944.964,0.03163
933.393,0.02008
921.822,0.01232
910.251,0.01113
898.68,0.02099
887.109,0.01811
875.538,0.07554
863.967,0.03951
852.396,0.04928
840.825,0.05095
829.254,0.02645
817.683,0.01733
806.112,0.01638
794.541,0.02839
782.97,0.01448
771.399,0.00655
759.828,0.00173
748.257,0.00000
736.686,0.06147
725.115,0.39439
713.544,0.23233
701.973,0.10365
690.402,0.04671
678.831,0.03026
667.26,0.01527
655.689,0.00510
649.904,0.00000

File: UL DH 1000HR PET 3.079-2.SPA.dpt
3999.71,0.00143
3988.13,0.00089
3976.56,0.00068
3964.99,0.00031
3953.42,-0.00001
3941.85,-0.00005
3930.28,-0.00012
3918.71,0.00002
3907.14,0.00044
3895.57,0.00057
3884,0.00049
3872.42,0.00080
3860.85,0.00153
3849.28,0.00164
3837.71,0.00030
3826.14,0.00105
3814.57,0.00052
3803,0.00038
3791.43,0.00083
3779.86,0.00074
3768.29,0.00090
3756.72,0.00123
3745.14,0.00000
3733.57,0.00037
3722,0.00043
3710.43,-0.00021
3698.86,0.00044
3687.29,0.00014
3675.72,-0.00049
3664.15,0.00058
3652.58,0.00076
3641.01,0.00108
3629.43,-0.00018
3617.86,0.00010
3606.29,0.00005
3594.72,0.00010
3583.15,0.00035
3571.58,0.00032
3560.01,0.00037
3548.44,0.00050
3536.87,0.00037
3525.3,0.00009
3513.72,-0.00016
3502.15,-0.00024
3490.58,-0.00010
3479.01,-0.00009
3467.44,-0.00028
3455.87,-0.00008
3444.3,0.00057
3432.73,0.00272
3421.16,0.00113
3409.59,0.00006
3398.01,0.00104
3386.44,0.00066
3374.87,-0.00011
3363.3,-0.00083
3351.73,-0.00084
3340.16,-0.00032
3328.59,-0.00007
3317.02,0.00013
3305.45,0.00130
3293.88,0.00256
3282.3,0.00236
3270.73,0.00107
3259.16,-0.00004
3247.59,-0.00043
3236.02,-0.00041
3224.45,-0.00008
3212.88,0.00000
3201.31,0.00012
3189.74,0.00037
3178.17,0.00030
3166.59,-0.00015
3155.02,-0.00065
3143.45,-0.00070
3131.88,-0.00021
3120.31,-0.00005
3108.74,0.00055
3097.17,0.00066
3085.6,0.00104
3074.03,0.00130
3062.46,0.00139
3050.88,0.00206
3039.31,-0.00030
3027.74,-0.00005
3016.17,0.00266
3004.6,0.00211
2993.03,0.00219
2981.46,0.00559
2969.89,0.01559
2958.32,0.01286
2946.75,0.00833
2935.17,0.00906
2923.6,0.01813
2912.03,0.01848
2900.46,0.01067
2888.89,0.00593
2877.32,0.00396
2865.75,0.00464
2854.18,0.01081
2842.61,0.00529
2831.04,0.00053
2819.46,0.00000
2807.89,0.00031
2796.32,0.00010
2784.75,-0.00016
2773.18,-0.00016
2761.61,0.00000
2750.04,0.00018
2738.47,0.00008
2726.9,-0.00016
2715.33,-0.00012
2703.75,-0.00003
2692.18,-0.00018
2680.61,-0.00030
2669.04,-0.00022
2657.47,-0.00005
2645.9,0.00002
2634.33,0.00036
2622.76,0.00008
2611.19,-0.00000
2599.62,0.00000
2588.04,0.00012
2576.47,0.00002
2564.9,-0.00003
2553.33,0.00007
2541.76,0.00007
2530.19,0.00011
2518.62,-0.00002
2507.05,0.00000
2495.48,0.00005
2483.91,0.00000
2472.33,-0.00008
2460.76,0.00001
2449.19,-0.00002
2437.62,-0.00003
2426.05,0.00006
2414.48,0.00021
2402.91,0.00070
2391.34,0.00121
2379.77,0.00153
2368.2,0.00213
2356.63,0.00175
2345.05,0.00148
2333.48,0.00181
2321.91,0.00158
2310.34,0.00096
2298.77,0.00128
2287.2,0.00189
2275.63,0.00138
2264.06,0.00102
2252.49,0.00051
2240.92,0.00014
2229.34,0.00018
2217.77,0.00030
2206.2,0.00025
2194.63,0.00010
2183.06,0.00000
2171.49,0.00133
2159.92,0.00000
2148.35,0.00473
2136.78,0.00760
2125.21,0.01082
2113.63,0.01204
2102.06,0.01146
2090.49,0.01083
2078.92,0.00949
2067.35,0.00773
2055.78,0.00614
2044.21,0.00231
2032.64,0.00005
2021.07,0.00005
2009.5,0.00043
1997.92,0.00179
1986.35,0.00185
1974.78,0.00089
1963.21,0.00518
1951.64,0.00452
1940.07,0.00254
1928.5,0.00121
1916.93,0.00055
1905.36,0.00018
1893.79,0.00000
1882.21,-0.00015
1870.64,-0.00020
1859.07,0.00000
1847.5,0.00066
1835.93,0.00180
1824.36,0.00182
1812.79,0.00131
1801.22,0.00065
1789.65,0.00012
1778.08,0.00002
1766.5,0.00127
1754.93,0.00746
1743.36,0.05169
1731.79,0.19929
1720.22,0.39285
1708.65,0.43664
1697.08,0.18401
1685.51,0.09967
1673.94,0.06256
1662.37,0.03408
1650.79,0.02350
1639.22,0.01939
1627.65,0.00951
1616.08,0.00724
1604.51,0.00306
1592.94,-0.00003
1581.37,0.00989
1569.8,0.00429
1558.23,0.00213
1546.66,0.00220
1535.08,0.00019
1523.51,0.00168
1511.94,0.00675
1500.37,0.01458
1488.8,0.00017
1477.23,0.01122
1465.66,0.01590
1454.09,0.01641
1442.52,0.01035
1430.95,0.00153
1419.37,0.00972
1407.8,0.09153
1396.23,0.01809
1384.66,0.01834
1373.09,0.01232
1361.52,0.00148
1349.95,0.01388
1338.38,0.14770
1326.81,0.00296
1315.24,0.00500
1303.66,0.02524
1292.09,0.07316
1280.52,0.13187
1268.95,0.21685
1257.38,0.29040
1245.81,0.37525
1234.24,0.36562
1222.67,0.29311
1211.1,0.19099
1199.53,0.10706
1187.95,0.04489
1176.38,0.02672
1164.81,0.00112
1153.24,0.00520
1141.67,0.04224
1130.1,0.17405
1118.53,0.27084
1106.96,0.29041
1095.39,0.33856
1083.82,0.28855
1072.25,0.20533
1060.67,0.13712
1049.1,0.10597
1037.53,0.07928
1025.96,0.07494
1014.39,0.20598
1002.82,0.09305
991.248,0.06059
979.677,0.05299
968.106,0.09341
956.535,0.05341
944.964,0.03325
933.393,0.02195
921.822,0.01423
910.251,0.01269
898.68,0.02181
887.109,0.01880
875.538,0.07216
863.967,0.03886
852.396,0.04803
840.825,0.05041
829.254,0.02698
817.683,0.01793
806.112,0.01674
794.541,0.02795
782.97,0.01479
771.399,0.00692
759.828,0.00201
748.257,0.00000
736.686,0.05913
725.115,0.37929
713.544,0.21985
701.973,0.09857
690.402,0.04460
678.831,0.02880
667.26,0.01449
655.689,0.00477
649.904,0.00000

File: UL DH 1500hr PET 3.061-1.SPA.dpt
3999.71,0.00100
3988.13,0.00058
3976.56,0.00038
3964.99,0.00035
3953.42,0.00010
3941.85,-0.00008
3930.28,-0.00014
3918.71,-0.00012
3907.14,-0.00010
3895.57,-0.00001
3884,-0.00011
3872.42,-0.00011
3860.85,-0.00007
3849.28,-0.00001
3837.71,0.00020
3826.14,-0.00008
3814.57,0.00008
3803,0.00008
3791.43,0.00007
3779.86,-0.00010
3768.29,-0.00014
3756.72,-0.00025
3745.14,0.00021
3733.57,0.00021
3722,0.00008
3710.43,0.00006
3698.86,0.00014
3687.29,0.00006
3675.72,0.00018
3664.15,-0.00021
3652.58,-0.00001
3641.01,-0.00000
3629.43,0.00031
3617.86,0.00009
3606.29,-0.00010
3594.72,-0.00003
3583.15,-0.00002
3571.58,-0.00023
3560.01,-0.00003
3548.44,0.00005
3536.87,-0.00000
3525.3,0.00004
3513.72,-0.00001
3502.15,-0.00005
3490.58,-0.00004
3479.01,0.00009
3467.44,0.00003
3455.87,-0.00006
3444.3,-0.00007
3432.73,0.00015
3421.16,-0.00012
3409.59,-0.00017
3398.01,0.00027
3386.44,0.00025
3374.87,0.00001
3363.3,0.00007
3351.73,0.00055
3340.16,0.00159
3328.59,0.00359
3317.02,0.00746
3305.45,0.01502
3293.88,0.02585
3282.3,0.02429
3270.73,0.01468
3259.16,0.00761
3247.59,0.00427
3236.02,0.00245
3224.45,0.00172
3212.88,0.00151
3201.31,0.00135
3189.74,0.00103
3178.17,0.00037
3166.59,0.00003
3155.02,-0.00004
3143.45,0.00009
3131.88,0.00017
3120.31,0.00038
3108.74,0.00100
3097.17,0.00196
3085.6,0.00284
3074.03,0.00217
3062.46,0.00102
3050.88,0.00053
3039.31,0.00009
3027.74,0.00002
3016.17,0.00038
3004.6,0.00008
2993.03,0.00010
2981.46,0.00139
2969.89,0.00507
2958.32,0.00931
2946.75,0.01239
2935.17,0.02073
2923.6,0.04000
2912.03,0.03334
2900.46,0.01470
2888.89,0.00854
2877.32,0.00660
2865.75,0.00799
2854.18,0.02329
2842.61,0.01190
2831.04,0.00252
2819.46,0.00087
2807.89,0.00030
2796.32,0.00001
2784.75,-0.00004
2773.18,-0.00008
2761.61,0.00000
2750.04,0.00000
2738.47,-0.00001
2726.9,-0.00003
2715.33,-0.00002
2703.75,0.00000
2692.18,0.00004
2680.61,-0.00005
2669.04,0.00003
2657.47,0.00007
2645.9,0.00009
2634.33,0.00013
2622.76,0.00002
2611.19,0.00016
2599.62,0.00009
2588.04,0.00006
2576.47,0.00002
2564.9,-0.00000
2553.33,0.00006
2541.76,0.00008
2530.19,0.00015
2518.62,0.00001
2507.05,0.00004
2495.48,0.00001
2483.91,-0.00001
2472.33,-0.00002
2460.76,-0.00000
2449.19,0.00010
2437.62,0.00008
2426.05,0.00000
2414.48,0.00021
2402.91,0.00019
2391.34,0.00049
2379.77,0.00187
2368.2,0.00775
2356.63,0.00838
2345.05,0.00613
2333.48,0.00696
2321.91,0.00544
2310.34,0.00299
2298.77,0.00228
2287.2,0.00199
2275.63,0.00208
2264.06,0.00204
2252.49,0.00193
2240.92,0.00177
2229.34,0.00164
2217.77,0.00167
2206.2,0.00172
2194.63,0.00140
2183.06,0.00093
2171.49,0.00112
2159.92,0.00000
2148.35,0.00176
2136.78,0.00263
2125.21,0.00379
2113.63,0.00406
2102.06,0.00389
2090.49,0.00374
2078.92,0.00343
2067.35,0.00279
2055.78,0.00261
2044.21,0.00103
2032.64,0.00008
2021.07,0.00001
2009.5,0.00005
1997.92,0.00071
1986.35,0.00069
1974.78,-0.00011
1963.21,0.00084
1951.64,0.00115
1940.07,0.00073
1928.5,0.00049
1916.93,0.00029
1905.36,0.00012
1893.79,0.00006
1882.21,-0.00001
1870.64,0.00004
1859.07,0.00000
1847.5,0.00014
1835.93,0.00028
1824.36,0.00039
1812.79,0.00023
1801.22,0.00016
1789.65,0.00010
1778.08,0.00001
1766.5,-0.00002
1754.93,0.00149
1743.36,0.01257
1731.79,0.03702
1720.22,0.05579
1708.65,0.07331
1697.08,0.04538
1685.51,0.02806
1673.94,0.02043
1662.37,0.01526
1650.79,0.02556
1639.22,0.03028
1627.65,0.01064
1616.08,0.00833
1604.51,0.00590
1592.94,0.00365
1581.37,0.00627
1569.8,0.00907
1558.23,0.01541
1546.66,0.01331
1535.08,0.00582
1523.51,0.00273
1511.94,0.00251
1500.37,0.00366
1488.8,0.00000
1477.23,0.00282
1465.66,0.00795
1454.09,0.00601
1442.52,0.00513
1430.95,0.00406
1419.37,0.00421
1407.8,0.02086
1396.23,0.00669
1384.66,0.00698
1373.09,0.00548
1361.52,0.00268
1349.95,0.00261
1338.38,0.03146
1326.81,0.00078
1315.24,0.00087
1303.66,0.00511
1292.09,0.01437
1280.52,0.02547
1268.95,0.04091
1257.38,0.05385
1245.81,0.07522
1234.24,0.09403
1222.67,0.08429
1211.1,0.06404
1199.53,0.04416
1187.95,0.02280
1176.38,0.01383
1164.81,0.00156
1153.24,0.00015
1141.67,0.00806
1130.1,0.03766
1118.53,0.06231
1106.96,0.06869
1095.39,0.08542
1083.82,0.08864
1072.25,0.07839
1060.67,0.06089
1049.1,0.04811
1037.53,0.03703
1025.96,0.02320
1014.39,0.07605
1002.82,0.04993
991.248,0.03555
979.677,0.02850
968.106,0.04194
956.535,0.03373
944.964,0.02655
933.393,0.02140
921.822,0.01737
910.251,0.01448
898.68,0.01547
887.109,0.01296
875.538,0.02593
863.967,0.01905
852.396,0.02080
840.825,0.02641
829.254,0.01909
817.683,0.01479
806.112,0.01335
794.541,0.01599
782.97,0.01221
771.399,0.00769
759.828,0.00394
748.257,0.00061
736.686,0.02251
725.115,0.12424
713.544,0.07385
701.973,0.03913
690.402,0.02077
678.831,0.01408
667.26,0.00838
655.689,0.00251
649.904,0.00000

File: UL DH 1500hr PET 3.078-2.SPA.dpt
3999.71,0.00194
3988.13,0.00130
3976.56,0.00082
3964.99,0.00055
3953.42,0.00008
3941.85,-0.00020
3930.28,-0.00032
3918.71,-0.00027
3907.14,-0.00023
3895.57,-0.00006
3884,-0.00020
3872.42,-0.00035
3860.85,-0.00021
3849.28,-0.00019
3837.71,0.00005
3826.14,-0.00030
3814.57,-0.00022
3803,0.00004
3791.43,0.00000
3779.86,-0.00018
3768.29,-0.00012
3756.72,-0.00007
3745.14,0.00022
3733.57,-0.00009
3722,-0.00033
3710.43,-0.00032
3698.86,-0.00025
3687.29,0.00023
3675.72,-0.00004
3664.15,-0.00033
3652.58,-0.00018
3641.01,-0.00011
3629.43,0.00002
3617.86,-0.00023
3606.29,-0.00043
3594.72,-0.00033
3583.15,-0.00008
3571.58,-0.00007
3560.01,0.00023
3548.44,0.00037
3536.87,0.00019
3525.3,0.00008
3513.72,-0.00008
3502.15,-0.00018
3490.58,-0.00021
3479.01,-0.00002
3467.44,-0.00044
3455.87,-0.00025
3444.3,0.00010
3432.73,0.00204
3421.16,0.00069
3409.59,-0.00039
3398.01,-0.00024
3386.44,-0.00015
3374.87,-0.00006
3363.3,-0.00015
3351.73,0.00032
3340.16,0.00123
3328.59,0.00288
3317.02,0.00635
3305.45,0.01408
3293.88,0.02508
3282.3,0.02331
3270.73,0.01314
3259.16,0.00575
3247.59,0.00226
3236.02,0.00068
3224.45,0.00008
3212.88,-0.00006
3201.31,0.00020
3189.74,0.00026
3178.17,-0.00004
3166.59,-0.00001
3155.02,-0.00044
3143.45,-0.00047
3131.88,-0.00019
3120.31,0.00001
3108.74,0.00101
3097.17,0.00213
3085.6,0.00316
3074.03,0.00290
3062.46,0.00190
3050.88,0.00215
3039.31,-0.00002
3027.74,0.00014
3016.17,0.00229
3004.6,0.00153
2993.03,0.00181
2981.46,0.00554
2969.89,0.01601
2958.32,0.01684
2946.75,0.01589
2935.17,0.02328
2923.6,0.04528
2912.03,0.04153
2900.46,0.01947
2888.89,0.01107
2877.32,0.00802
2865.75,0.00948
2854.18,0.02659
2842.61,0.01265
2831.04,0.00171
2819.46,-0.00010
2807.89,-0.00006
2796.32,-0.00017
2784.75,-0.00034
2773.18,-0.00025
2761.61,-0.00009
2750.04,0.00009
2738.47,-0.00000
2726.9,-0.00017
2715.33,-0.00014
2703.75,-0.00003
2692.18,-0.00014
2680.61,-0.00030
2669.04,-0.00019
2657.47,-0.00009
2645.9,-0.00001
2634.33,0.00026
2622.76,0.00003
2611.19,0.00007
2599.62,0.00006
2588.04,0.00009
2576.47,-0.00006
2564.9,-0.00005
2553.33,-0.00004
2541.76,0.00004
2530.19,0.00018
2518.62,0.00005
2507.05,0.00007
2495.48,0.00013
2483.91,-0.00003
2472.33,-0.00005
2460.76,-0.00003
2449.19,0.00002
2437.62,0.00001
2426.05,0.00004
2414.48,0.00038
2402.91,0.00077
2391.34,0.00137
2379.77,0.00161
2368.2,0.00145
2356.63,0.00098
2345.05,0.00113
2333.48,0.00146
2321.91,0.00142
2310.34,0.00137
2298.77,0.00216
2287.2,0.00255
2275.63,0.00225
2264.06,0.00205
2252.49,0.00157
2240.92,0.00117
2229.34,0.00107
2217.77,0.00132
2206.2,0.00137
2194.63,0.00107
2183.06,0.00086
2171.49,0.00191
2159.92,0.00000
2148.35,0.00529
2136.78,0.00802
2125.21,0.01114
2113.63,0.01206
2102.06,0.01151
2090.49,0.01101
2078.92,0.00958
2067.35,0.00781
2055.78,0.00630
2044.21,0.00229
2032.64,0.00000
2021.07,0.00000
2009.5,0.00008
1997.92,0.00163
1986.35,0.00146
1974.78,0.00014
1963.21,0.00445
1951.64,0.00412
1940.07,0.00235
1928.5,0.00122
1916.93,0.00069
1905.36,0.00018
1893.79,0.00000
1882.21,-0.00009
1870.64,-0.00008
1859.07,0.00000
1847.5,0.00064
1835.93,0.00158
1824.36,0.00168
1812.79,0.00110
1801.22,0.00050
1789.65,0.00007
1778.08,-0.00007
1766.5,0.00105
1754.93,0.00692
1743.36,0.04990
1731.79,0.18458
1720.22,0.34873
1708.65,0.38513
1697.08,0.16334
1685.51,0.08872
1673.94,0.05550
1662.37,0.03153
1650.79,0.03437
1639.22,0.03548
1627.65,0.01106
1616.08,0.00883
1604.51,0.00369
1592.94,0.00000
1581.37,0.00928
1569.8,0.00694
1558.23,0.01171
1546.66,0.00996
1535.08,0.00267
1523.51,0.00227
1511.94,0.00669
1500.37,0.01323
1488.8,0.00012
1477.23,0.01008
1465.66,0.01727
1454.09,0.01533
1442.52,0.00991
1430.95,0.00286
1419.37,0.00783
1407.8,0.08058
1396.23,0.01575
1384.66,0.01626
1373.09,0.01058
1361.52,0.00168
1349.95,0.01175
1338.38,0.13634
1326.81,0.00255
1315.24,0.00445
1303.66,0.02278
1292.09,0.06495
1280.52,0.11779
1268.95,0.19321
1257.38,0.25879
1245.81,0.33789
1234.24,0.34009
1222.67,0.27812
1211.1,0.18555
1199.53,0.10654
1187.95,0.04587
1176.38,0.02850
1164.81,0.00137
1153.24,0.00400
1141.67,0.03706
1130.1,0.15778
1118.53,0.24675
1106.96,0.26511
1095.39,0.30897
1083.82,0.26937
1072.25,0.19775
1060.67,0.13472
1049.1,0.10412
1037.53,0.07726
1025.96,0.06987
1014.39,0.19738
1002.82,0.09413
991.248,0.06178
979.677,0.05328
968.106,0.09189
956.535,0.05490
944.964,0.03560
933.393,0.02446
921.822,0.01691
910.251,0.01478
898.68,0.02252
887.109,0.01912
875.538,0.06765
863.967,0.03695
852.396,0.04531
840.825,0.04875
829.254,0.02716
817.683,0.01830
806.112,0.01739
794.541,0.02716
782.97,0.01485
771.399,0.00699
759.828,0.00186
748.257,0.00006
736.686,0.05487
725.115,0.35357
713.544,0.20792
701.973,0.09349
690.402,0.04342
678.831,0.02892
667.26,0.01447
655.689,0.00474
649.904,0.00000