Folder: projects/Exploratory-Data-Science/Model Testing of Backsheet Color and FTIR Data/FTIR/XENON1-FTIR

Note: README.md
# Projects

This is a repository of a collection of my reports/projects/research projects and
final materials that I would like to showcase for the public. Basically, it consists
of things that I am proud of. I hope you all enjoy!

File: Arkema XENON 0HR PET 3.011-1.SPA.dpt
3999.71,0.00260
3988.13,0.00181
3976.56,0.00109
3964.99,0.00059
3953.42,0.00022
3941.85,-0.00028
3930.28,-0.00034
3918.71,-0.00027
3907.14,-0.00019
3895.57,-0.00014
3884,-0.00042
3872.42,-0.00038
3860.85,-0.00042
3849.28,-0.00014
3837.71,-0.00010
3826.14,-0.00043
3814.57,-0.00027
3803,-0.00006
3791.43,-0.00008
3779.86,-0.00025
3768.29,-0.00014
3756.72,-0.00000
3745.14,0.00012
3733.57,-0.00025
3722,-0.00066
3710.43,-0.00066
3698.86,-0.00036
3687.29,0.00041
3675.72,-0.00033
3664.15,-0.00064
3652.58,-0.00024
3641.01,-0.00008
3629.43,-0.00009
3617.86,-0.00032
3606.29,-0.00068
3594.72,-0.00053
3583.15,-0.00004
3571.58,0.00005
3560.01,0.00025
3548.44,0.00034
3536.87,0.00005
3525.3,-0.00017
3513.72,-0.00047
3502.15,-0.00044
3490.58,-0.00026
3479.01,-0.00009
3467.44,-0.00037
3455.87,0.00004
3444.3,0.00123
3432.73,0.00475
3421.16,0.00261
3409.59,0.00041
3398.01,-0.00033
3386.44,-0.00018
3374.87,0.00015
3363.3,-0.00031
3351.73,-0.00022
3340.16,0.00033
3328.59,0.00023
3317.02,-0.00034
3305.45,-0.00028
3293.88,-0.00014
3282.3,-0.00017
3270.73,-0.00007
3259.16,-0.00032
3247.59,-0.00037
3236.02,-0.00011
3224.45,-0.00011
3212.88,-0.00045
3201.31,-0.00054
3189.74,-0.00036
3178.17,-0.00028
3166.59,-0.00009
3155.02,-0.00048
3143.45,-0.00056
3131.88,-0.00005
3120.31,-0.00010
3108.74,0.00054
3097.17,0.00054
3085.6,0.00072
3074.03,0.00138
3062.46,0.00195
3050.88,0.00300
3039.31,-0.00024
3027.74,0.00000
3016.17,0.00348
3004.6,0.00349
2993.03,0.00432
2981.46,0.00952
2969.89,0.02280
2958.32,0.01735
2946.75,0.00951
2935.17,0.00492
2923.6,0.00367
2912.03,0.00690
2900.46,0.00781
2888.89,0.00469
2877.32,0.00351
2865.75,0.00379
2854.18,0.00383
2842.61,0.00088
2831.04,0.00024
2819.46,0.00013
2807.89,0.00045
2796.32,0.00026
2784.75,-0.00019
2773.18,-0.00030
2761.61,-0.00006
2750.04,0.00014
2738.47,0.00006
2726.9,-0.00026
2715.33,-0.00016
2703.75,-0.00004
2692.18,-0.00020
2680.61,-0.00042
2669.04,-0.00026
2657.47,-0.00012
2645.9,0.00000
2634.33,0.00025
2622.76,-0.00001
2611.19,-0.00015
2599.62,-0.00003
2588.04,0.00007
2576.47,-0.00011
2564.9,-0.00006
2553.33,-0.00008
2541.76,0.00008
2530.19,0.00019
2518.62,-0.00002
2507.05,0.00010
2495.48,0.00020
2483.91,0.00005
2472.33,0.00005
2460.76,0.00006
2449.19,0.00020
2437.62,0.00093
2426.05,0.00222
2414.48,0.00383
2402.91,0.00552
2391.34,0.00725
2379.77,0.00730
2368.2,0.00149
2356.63,0.00041
2345.05,0.00237
2333.48,0.00069
2321.91,0.00187
2310.34,0.00371
2298.77,0.00488
2287.2,0.00537
2275.63,0.00430
2264.06,0.00351
2252.49,0.00250
2240.92,0.00131
2229.34,0.00110
2217.77,0.00085
2206.2,0.00065
2194.63,0.00005
2183.06,0.00000
2171.49,0.00080
2159.92,0.00001
2148.35,0.00435
2136.78,0.00707
2125.21,0.00967
2113.63,0.01086
2102.06,0.01039
2090.49,0.00970
2078.92,0.00829
2067.35,0.00656
2055.78,0.00512
2044.21,0.00163
2032.64,0.00003
2021.07,0.00000
2009.5,0.00025
1997.92,0.00127
1986.35,0.00131
1974.78,0.00069
1963.21,0.00622
1951.64,0.00550
1940.07,0.00291
1928.5,0.00125
1916.93,0.00049
1905.36,0.00001
1893.79,-0.00017
1882.21,-0.00028
1870.64,-0.00024
1859.07,-0.00013
1847.5,0.00058
1835.93,0.00180
1824.36,0.00204
1812.79,0.00126
1801.22,0.00042
1789.65,-0.00017
1778.08,-0.00034
1766.5,0.00131
1754.93,0.00934
1743.36,0.06544
1731.79,0.24750
1720.22,0.49773
1708.65,0.53384
1697.08,0.22196
1685.51,0.12472
1673.94,0.07910
1662.37,0.04337
1650.79,0.02461
1639.22,0.01479
1627.65,0.00887
1616.08,0.00915
1604.51,0.00435
1592.94,0.00100
1581.37,0.01238
1569.8,0.00423
1558.23,0.00087
1546.66,0.00064
1535.08,0.00064
1523.51,0.00403
1511.94,0.00902
1500.37,0.01854
1488.8,0.00027
1477.23,0.01380
1465.66,0.01780
1454.09,0.02111
1442.52,0.01343
1430.95,0.00197
1419.37,0.01123
1407.8,0.11362
1396.23,0.02249
1384.66,0.02173
1373.09,0.01589
1361.52,0.00200
1349.95,0.01650
1338.38,0.16883
1326.81,0.00366
1315.24,0.00732
1303.66,0.03149
1292.09,0.09042
1280.52,0.16021
1268.95,0.26258
1257.38,0.35840
1245.81,0.45630
1234.24,0.41906
1222.67,0.32025
1211.1,0.20318
1199.53,0.11371
1187.95,0.04796
1176.38,0.03057
1164.81,0.00139
1153.24,0.00626
1141.67,0.04985
1130.1,0.20134
1118.53,0.31367
1106.96,0.33653
1095.39,0.40087
1083.82,0.32522
1072.25,0.21625
1060.67,0.14084
1049.1,0.11175
1037.53,0.08553
1025.96,0.08272
1014.39,0.22225
1002.82,0.09204
991.248,0.05957
979.677,0.05293
968.106,0.09489
956.535,0.05120
944.964,0.02965
933.393,0.01801
921.822,0.01011
910.251,0.00932
898.68,0.02066
887.109,0.01812
875.538,0.08088
863.967,0.04211
852.396,0.05102
840.825,0.05247
829.254,0.02708
817.683,0.01768
806.112,0.01693
794.541,0.03009
782.97,0.01557
771.399,0.00732
759.828,0.00206
748.257,0.00000
736.686,0.06394
725.115,0.41444
713.544,0.24747
701.973,0.11302
690.402,0.05176
678.831,0.03349
667.26,0.01559
655.689,0.00537
649.904,0.00000

File: Arkema XENON 0HR PET 3.011-2.SPA.dpt
3999.71,0.00236
3988.13,0.00169
3976.56,0.00091
3964.99,0.00056
3953.42,0.00017
3941.85,-0.00024
3930.28,-0.00035
3918.71,-0.00018
3907.14,-0.00017
3895.57,-0.00010
3884,-0.00035
3872.42,-0.00046
3860.85,-0.00032
3849.28,-0.00015
3837.71,-0.00007
3826.14,-0.00040
3814.57,-0.00018
3803,-0.00008
3791.43,-0.00007
3779.86,-0.00021
3768.29,-0.00016
3756.72,0.00001
3745.14,0.00023
3733.57,-0.00028
3722,-0.00064
3710.43,-0.00045
3698.86,-0.00022
3687.29,0.00048
3675.72,-0.00010
3664.15,-0.00050
3652.58,-0.00022
3641.01,-0.00014
3629.43,-0.00012
3617.86,-0.00020
3606.29,-0.00044
3594.72,-0.00038
3583.15,-0.00001
3571.58,0.00007
3560.01,0.00028
3548.44,0.00039
3536.87,0.00003
3525.3,-0.00016
3513.72,-0.00032
3502.15,-0.00028
3490.58,-0.00010
3479.01,0.00001
3467.44,-0.00018
3455.87,0.00020
3444.3,0.00118
3432.73,0.00424
3421.16,0.00234
3409.59,0.00038
3398.01,-0.00019
3386.44,-0.00015
3374.87,0.00014
3363.3,-0.00031
3351.73,-0.00017
3340.16,0.00028
3328.59,0.00022
3317.02,-0.00030
3305.45,-0.00020
3293.88,-0.00009
3282.3,-0.00006
3270.73,-0.00007
3259.16,-0.00028
3247.59,-0.00038
3236.02,-0.00017
3224.45,-0.00004
3212.88,-0.00031
3201.31,-0.00043
3189.74,-0.00028
3178.17,-0.00023
3166.59,-0.00004
3155.02,-0.00043
3143.45,-0.00039
3131.88,0.00001
3120.31,-0.00010
3108.74,0.00057
3097.17,0.00060
3085.6,0.00077
3074.03,0.00131
3062.46,0.00183
3050.88,0.00284
3039.31,0.00005
3027.74,0.00023
3016.17,0.00330
3004.6,0.00310
2993.03,0.00364
2981.46,0.00809
2969.89,0.01983
2958.32,0.01491
2946.75,0.00834
2935.17,0.00429
2923.6,0.00302
2912.03,0.00585
2900.46,0.00705
2888.89,0.00430
2877.32,0.00332
2865.75,0.00361
2854.18,0.00359
2842.61,0.00099
2831.04,0.00032
2819.46,0.00012
2807.89,0.00041
2796.32,0.00021
2784.75,-0.00019
2773.18,-0.00028
2761.61,-0.00011
2750.04,0.00010
2738.47,0.00002
2726.9,-0.00025
2715.33,-0.00019
2703.75,-0.00005
2692.18,-0.00023
2680.61,-0.00040
2669.04,-0.00026
2657.47,-0.00005
2645.9,0.00002
2634.33,0.00023
2622.76,-0.00001
2611.19,-0.00008
2599.62,0.00002
2588.04,0.00014
2576.47,-0.00005
2564.9,-0.00004
2553.33,-0.00005
2541.76,0.00005
2530.19,0.00014
2518.62,0.00001
2507.05,0.00007
2495.48,0.00010
2483.91,0.00000
2472.33,0.00000
2460.76,0.00036
2449.19,0.00093
2437.62,0.00209
2426.05,0.00375
2414.48,0.00567
2402.91,0.00773
2391.34,0.00971
2379.77,0.00978
2368.2,0.00190
2356.63,0.00069
2345.05,0.00356
2333.48,0.00134
2321.91,0.00306
2310.34,0.00568
2298.77,0.00694
2287.2,0.00727
2275.63,0.00598
2264.06,0.00496
2252.49,0.00379
2240.92,0.00254
2229.34,0.00208
2217.77,0.00151
2206.2,0.00118
2194.63,0.00033
2183.06,0.00000
2171.49,0.00079
2159.92,0.00000
2148.35,0.00451
2136.78,0.00708
2125.21,0.00941
2113.63,0.01045
2102.06,0.00990
2090.49,0.00925
2078.92,0.00796
2067.35,0.00617
2055.78,0.00494
2044.21,0.00160
2032.64,0.00000
2021.07,0.00000
2009.5,0.00033
1997.92,0.00138
1986.35,0.00151
1974.78,0.00119
1963.21,0.00629
1951.64,0.00547
1940.07,0.00288
1928.5,0.00137
1916.93,0.00057
1905.36,0.00010
1893.79,-0.00009
1882.21,-0.00022
1870.64,-0.00019
1859.07,-0.00008
1847.5,0.00049
1835.93,0.00172
1824.36,0.00194
1812.79,0.00131
1801.22,0.00061
1789.65,0.00008
1778.08,-0.00010
1766.5,0.00137
1754.93,0.00865
1743.36,0.05971
1731.79,0.22594
1720.22,0.44916
1708.65,0.49576
1697.08,0.21341
1685.51,0.12032
1673.94,0.07684
1662.37,0.04262
1650.79,0.02445
1639.22,0.01484
1627.65,0.00885
1616.08,0.00864
1604.51,0.00385
1592.94,0.00061
1581.37,0.01110
1569.8,0.00376
1558.23,0.00073
1546.66,0.00066
1535.08,0.00062
1523.51,0.00390
1511.94,0.00837
1500.37,0.01740
1488.8,0.00024
1477.23,0.01281
1465.66,0.01642
1454.09,0.01926
1442.52,0.01233
1430.95,0.00180
1419.37,0.01039
1407.8,0.10494
1396.23,0.02073
1384.66,0.02034
1373.09,0.01447
1361.52,0.00182
1349.95,0.01556
1338.38,0.15847
1326.81,0.00322
1315.24,0.00636
1303.66,0.02886
1292.09,0.08370
1280.52,0.14968
1268.95,0.24524
1257.38,0.33051
1245.81,0.42028
1234.24,0.39426
1222.67,0.30665
1211.1,0.19581
1199.53,0.11027
1187.95,0.04702
1176.38,0.02933
1164.81,0.00143
1153.24,0.00569
1141.67,0.04638
1130.1,0.19030
1118.53,0.29270
1106.96,0.31316
1095.39,0.37085
1083.82,0.30783
1072.25,0.20973
1060.67,0.13791
1049.1,0.10893
1037.53,0.08341
1025.96,0.07993
1014.39,0.21393
1002.82,0.09163
991.248,0.06005
979.677,0.05298
968.106,0.09359
956.535,0.05208
944.964,0.03133
933.393,0.01997
921.822,0.01217
910.251,0.01103
898.68,0.02150
887.109,0.01882
875.538,0.07755
863.967,0.04126
852.396,0.04992
840.825,0.05180
829.254,0.02749
817.683,0.01828
806.112,0.01733
794.541,0.02961
782.97,0.01585
771.399,0.00768
759.828,0.00238
748.257,0.00000
736.686,0.06124
725.115,0.39697
713.544,0.23516
701.973,0.10769
690.402,0.04968
678.831,0.03215
667.26,0.01454
655.689,0.00529
649.904,0.00000

File: Arkema XENON 0HR PET 3.018-1.SPA.dpt
3999.71,0.00110
3988.13,0.00080
3976.56,0.00043
3964.99,0.00020
3953.42,0.00021
3941.85,-0.00005
3930.28,-0.00019
3918.71,-0.00003
3907.14,-0.00004
3895.57,-0.00006
3884,-0.00020
3872.42,-0.00019
3860.85,-0.00010
3849.28,-0.00006
3837.71,-0.00005
3826.14,-0.00027
3814.57,-0.00018
3803,-0.00009
3791.43,-0.00007
3779.86,-0.00014
3768.29,-0.00011
3756.72,-0.00004
3745.14,0.00002
3733.57,-0.00010
3722,-0.00023
3710.43,-0.00027
3698.86,0.00000
3687.29,0.00032
3675.72,-0.00007
3664.15,-0.00027
3652.58,-0.00013
3641.01,-0.00000
3629.43,0.00012
3617.86,0.00005
3606.29,-0.00016
3594.72,-0.00022
3583.15,-0.00003
3571.58,0.00002
3560.01,0.00014
3548.44,0.00037
3536.87,0.00021
3525.3,0.00009
3513.72,-0.00003
3502.15,-0.00015
3490.58,-0.00003
3479.01,-0.00004
3467.44,-0.00015
3455.87,0.00000
3444.3,0.00071
3432.73,0.00262
3421.16,0.00141
3409.59,0.00023
3398.01,-0.00019
3386.44,-0.00013
3374.87,0.00001
3363.3,-0.00024
3351.73,-0.00015
3340.16,0.00012
3328.59,0.00011
3317.02,-0.00023
3305.45,-0.00007
3293.88,0.00004
3282.3,-0.00000
3270.73,-0.00003
3259.16,-0.00010
3247.59,-0.00014
3236.02,-0.00008
3224.45,-0.00002
3212.88,-0.00014
3201.31,-0.00013
3189.74,-0.00010
3178.17,-0.00010
3166.59,-0.00002
3155.02,-0.00021
3143.45,-0.00021
3131.88,0.00003
3120.31,0.00000
3108.74,0.00036
3097.17,0.00037
3085.6,0.00053
3074.03,0.00083
3062.46,0.00114
3050.88,0.00159
3039.31,-0.00006
3027.74,0.00014
3016.17,0.00240
3004.6,0.00280
2993.03,0.00356
2981.46,0.00638
2969.89,0.01305
2958.32,0.01035
2946.75,0.00718
2935.17,0.00489
2923.6,0.00263
2912.03,0.00447
2900.46,0.00663
2888.89,0.00544
2877.32,0.00487
2865.75,0.00473
2854.18,0.00352
2842.61,0.00226
2831.04,0.00177
2819.46,0.00111
2807.89,0.00105
2796.32,0.00081
2784.75,0.00038
2773.18,0.00013
2761.61,0.00003
2750.04,0.00005
2738.47,0.00007
2726.9,-0.00012
2715.33,-0.00006
2703.75,0.00005
2692.18,-0.00008
2680.61,-0.00020
2669.04,-0.00012
2657.47,-0.00001
2645.9,0.00001
2634.33,0.00012
2622.76,-0.00003
2611.19,-0.00005
2599.62,0.00000
2588.04,0.00006
2576.47,-0.00008
2564.9,0.00000
2553.33,-0.00000
2541.76,0.00003
2530.19,0.00011
2518.62,0.00002
2507.05,-0.00002
2495.48,0.00000
2483.91,-0.00004
2472.33,-0.00009
2460.76,-0.00002
2449.19,-0.00002
2437.62,0.00007
2426.05,0.00021
2414.48,0.00057
2402.91,0.00104
2391.34,0.00150
2379.77,0.00150
2368.2,0.00063
2356.63,0.00030
2345.05,0.00055
2333.48,0.00068
2321.91,0.00077
2310.34,0.00089
2298.77,0.00127
2287.2,0.00166
2275.63,0.00118
2264.06,0.00085
2252.49,0.00038
2240.92,0.00011
2229.34,0.00018
2217.77,0.00012
2206.2,0.00021
2194.63,0.00017
2183.06,0.00004
2171.49,0.00056
2159.92,0.00001
2148.35,0.00314
2136.78,0.00480
2125.21,0.00645
2113.63,0.00726
2102.06,0.00694
2090.49,0.00652
2078.92,0.00578
2067.35,0.00460
2055.78,0.00375
2044.21,0.00142
2032.64,0.00001
2021.07,0.00000
2009.5,0.00045
1997.92,0.00124
1986.35,0.00146
1974.78,0.00107
1963.21,0.00437
1951.64,0.00376
1940.07,0.00221
1928.5,0.00125
1916.93,0.00069
1905.36,0.00034
1893.79,0.00010
1882.21,-0.00000
1870.64,-0.00003
1859.07,0.00000
1847.5,0.00034
1835.93,0.00100
1824.36,0.00117
1812.79,0.00083
1801.22,0.00036
1789.65,0.00003
1778.08,-0.00005
1766.5,0.00077
1754.93,0.00460
1743.36,0.03089
1731.79,0.10857
1720.22,0.19907
1708.65,0.24464
1697.08,0.13254
1685.51,0.07941
1673.94,0.05396
1662.37,0.03251
1650.79,0.02029
1639.22,0.01338
1627.65,0.00887
1616.08,0.00790
1604.51,0.00447
1592.94,0.00200
1581.37,0.00757
1569.8,0.00340
1558.23,0.00147
1546.66,0.00104
1535.08,0.00062
1523.51,0.00278
1511.94,0.00493
1500.37,0.01043
1488.8,0.00014
1477.23,0.00756
1465.66,0.00947
1454.09,0.01097
1442.52,0.00713
1430.95,0.00107
1419.37,0.00593
1407.8,0.05890
1396.23,0.01238
1384.66,0.01186
1373.09,0.00839
1361.52,0.00109
1349.95,0.00866
1338.38,0.08288
1326.81,0.00187
1315.24,0.00344
1303.66,0.01557
1292.09,0.04427
1280.52,0.07718
1268.95,0.12029
1257.38,0.15599
1245.81,0.19535
1234.24,0.19906
1222.67,0.16481
1211.1,0.11380
1199.53,0.06965
1187.95,0.03184
1176.38,0.01917
1164.81,0.00138
1153.24,0.00280
1141.67,0.02514
1130.1,0.09833
1118.53,0.14590
1106.96,0.15574
1095.39,0.18426
1083.82,0.16761
1072.25,0.12725
1060.67,0.09074
1049.1,0.07274
1037.53,0.05707
1025.96,0.04886
1014.39,0.12651
1002.82,0.06600
991.248,0.04601
979.677,0.03973
968.106,0.06356
956.535,0.04198
944.964,0.02909
933.393,0.02144
921.822,0.01575
910.251,0.01387
898.68,0.01954
887.109,0.01714
875.538,0.04904
863.967,0.03101
852.396,0.03564
840.825,0.03904
829.254,0.02397
817.683,0.01728
806.112,0.01577
794.541,0.02298
782.97,0.01450
771.399,0.00804
759.828,0.00319
748.257,0.00047
736.686,0.03843
725.115,0.20572
713.544,0.13033
701.973,0.06741
690.402,0.03321
678.831,0.02154
667.26,0.01099
655.689,0.00357
649.904,0.00000

File: Arkema XENON 0HR PET 3.018-2.SPA.dpt
3999.71,0.00342
3988.13,0.00238
3976.56,0.00143
3964.99,0.00076
3953.42,0.00020
3941.85,-0.00019
3930.28,-0.00039
3918.71,-0.00030
3907.14,-0.00017
3895.57,-0.00016
3884,-0.00047
3872.42,-0.00059
3860.85,-0.00048
3849.28,-0.00021
3837.71,-0.00008
3826.14,-0.00056
3814.57,-0.00033
3803,-0.00003
3791.43,-0.00011
3779.86,-0.00047
3768.29,-0.00054
3756.72,-0.00040
3745.14,-0.00013
3733.57,0.00027
3722,-0.00044
3710.43,-0.00103
3698.86,-0.00042
3687.29,0.00033
3675.72,-0.00067
3664.15,-0.00129
3652.58,-0.00073
3641.01,-0.00012
3629.43,0.00042
3617.86,-0.00006
3606.29,-0.00051
3594.72,-0.00035
3583.15,-0.00012
3571.58,-0.00001
3560.01,0.00021
3548.44,0.00043
3536.87,0.00012
3525.3,-0.00026
3513.72,-0.00056
3502.15,-0.00054
3490.58,-0.00035
3479.01,-0.00009
3467.44,-0.00022
3455.87,0.00043
3444.3,0.00235
3432.73,0.00764
3421.16,0.00398
3409.59,0.00057
3398.01,-0.00052
3386.44,-0.00042
3374.87,0.00006
3363.3,-0.00048
3351.73,-0.00033
3340.16,0.00043
3328.59,0.00022
3317.02,-0.00041
3305.45,-0.00026
3293.88,-0.00009
3282.3,-0.00019
3270.73,-0.00010
3259.16,-0.00046
3247.59,-0.00046
3236.02,-0.00021
3224.45,-0.00007
3212.88,-0.00042
3201.31,-0.00054
3189.74,-0.00032
3178.17,-0.00026
3166.59,-0.00005
3155.02,-0.00065
3143.45,-0.00058
3131.88,0.00011
3120.31,0.00000
3108.74,0.00097
3097.17,0.00093
3085.6,0.00125
3074.03,0.00208
3062.46,0.00271
3050.88,0.00383
3039.31,-0.00028
3027.74,0.00012
3016.17,0.00542
3004.6,0.00532
2993.03,0.00658
2981.46,0.01370
2969.89,0.03092
2958.32,0.02208
2946.75,0.01143
2935.17,0.00532
2923.6,0.00291
2912.03,0.00826
2900.46,0.00921
2888.89,0.00580
2877.32,0.00442
2865.75,0.00483
2854.18,0.00459
2842.61,0.00126
2831.04,0.00064
2819.46,0.00072
2807.89,0.00107
2796.32,0.00069
2784.75,0.00004
2773.18,-0.00008
2761.61,0.00013
2750.04,0.00042
2738.47,0.00033
2726.9,-0.00013
2715.33,-0.00006
2703.75,0.00016
2692.18,-0.00006
2680.61,-0.00030
2669.04,-0.00015
2657.47,0.00001
2645.9,0.00012
2634.33,0.00043
2622.76,0.00002
2611.19,-0.00016
2599.62,-0.00005
2588.04,0.00008
2576.47,-0.00012
2564.9,-0.00009
2553.33,-0.00000
2541.76,0.00020
2530.19,0.00028
2518.62,-0.00011
2507.05,-0.00007
2495.48,0.00004
2483.91,-0.00020
2472.33,-0.00018
2460.76,-0.00011
2449.19,-0.00003
2437.62,0.00002
2426.05,0.00001
2414.48,0.00019
2402.91,0.00055
2391.34,0.00083
2379.77,0.00382
2368.2,0.01923
2356.63,0.02006
2345.05,0.01211
2333.48,0.01461
2321.91,0.00943
2310.34,0.00227
2298.77,0.00033
2287.2,0.00064
2275.63,0.00030
2264.06,0.00035
2252.49,0.00004
2240.92,-0.00003
2229.34,0.00006
2217.77,0.00002
2206.2,0.00012
2194.63,-0.00015
2183.06,-0.00022
2171.49,0.00055
2159.92,0.00000
2148.35,0.00428
2136.78,0.00693
2125.21,0.00960
2113.63,0.01095
2102.06,0.01043
2090.49,0.00962
2078.92,0.00817
2067.35,0.00631
2055.78,0.00473
2044.21,0.00135
2032.64,0.00000
2021.07,0.00000
2009.5,0.00032
1997.92,0.00135
1986.35,0.00196
1974.78,0.00187
1963.21,0.00874
1951.64,0.00692
1940.07,0.00330
1928.5,0.00123
1916.93,0.00037
1905.36,-0.00010
1893.79,-0.00031
1882.21,-0.00050
1870.64,-0.00035
1859.07,-0.00010
1847.5,0.00061
1835.93,0.00210
1824.36,0.00257
1812.79,0.00184
1801.22,0.00087
1789.65,0.00017
1778.08,-0.00004
1766.5,0.00203
1754.93,0.01188
1743.36,0.07990
1731.79,0.29674
1720.22,0.62381
1708.65,0.68047
1697.08,0.28065
1685.51,0.15711
1673.94,0.09889
1662.37,0.05286
1650.79,0.02913
1639.22,0.01710
1627.65,0.00997
1616.08,0.01062
1604.51,0.00469
1592.94,0.00094
1581.37,0.01490
1569.8,0.00480
1558.23,0.00069
1546.66,0.00052
1535.08,0.00070
1523.51,0.00487
1511.94,0.01066
1500.37,0.02186
1488.8,0.00039
1477.23,0.01799
1465.66,0.02240
1454.09,0.02573
1442.52,0.01650
1430.95,0.00233
1419.37,0.01435
1407.8,0.14079
1396.23,0.02734
1384.66,0.02597
1373.09,0.01903
1361.52,0.00230
1349.95,0.02085
1338.38,0.19484
1326.81,0.00375
1315.24,0.00968
1303.66,0.03982
1292.09,0.11175
1280.52,0.20042
1268.95,0.33029
1257.38,0.45781
1245.81,0.57382
1234.24,0.48137
1222.67,0.34497
1211.1,0.20462
1199.53,0.10891
1187.95,0.04360
1176.38,0.03088
1164.81,0.00100
1153.24,0.00868
1141.67,0.06343
1130.1,0.25229
1118.53,0.37533
1106.96,0.39988
1095.39,0.47261
1083.82,0.36138
1072.25,0.21955
1060.67,0.13565
1049.1,0.11076
1037.53,0.08573
1025.96,0.09580
1014.39,0.23274
1002.82,0.08116
991.248,0.05077
979.677,0.04730
968.106,0.09107
956.535,0.04119
944.964,0.01940
933.393,0.00837
921.822,0.00118
910.251,0.00204
898.68,0.01588
887.109,0.01413
875.538,0.08886
863.967,0.04372
852.396,0.05409
840.825,0.05253
829.254,0.02430
817.683,0.01472
806.112,0.01496
794.541,0.03090
782.97,0.01456
771.399,0.00638
759.828,0.00193
748.257,0.00017
736.686,0.07007
725.115,0.45760
713.544,0.27812
701.973,0.12541
690.402,0.05681
678.831,0.03706
667.26,0.02159
655.689,0.00602
649.904,0.00000

File: Arkema XENON 2000HR PET 3.017-1.SPA.dpt
3999.71,0.00124
3988.13,0.00080
3976.56,0.00048
3964.99,0.00025
3953.42,0.00000
3941.85,0.00000
3930.28,-0.00013
3918.71,-0.00006
3907.14,-0.00001
3895.57,0.00003
3884,-0.00021
3872.42,-0.00016
3860.85,-0.00011
3849.28,0.00000
3837.71,-0.00000
3826.14,-0.00014
3814.57,-0.00013
3803,-0.00007
3791.43,0.00001
3779.86,-0.00014
3768.29,-0.00000
3756.72,-0.00010
3745.14,-0.00007
3733.57,-0.00002
3722,-0.00026
3710.43,-0.00018
3698.86,-0.00018
3687.29,-0.00008
3675.72,-0.00023
3664.15,-0.00032
3652.58,-0.00027
3641.01,0.00000
3629.43,-0.00013
3617.86,0.00003
3606.29,-0.00005
3594.72,-0.00017
3583.15,-0.00008
3571.58,-0.00007
3560.01,-0.00022
3548.44,-0.00012
3536.87,-0.00009
3525.3,-0.00012
3513.72,-0.00005
3502.15,0.00001
3490.58,0.00010
3479.01,0.00005
3467.44,-0.00008
3455.87,-0.00013
3444.3,-0.00026
3432.73,0.00002
3421.16,-0.00019
3409.59,-0.00024
3398.01,-0.00014
3386.44,-0.00005
3374.87,-0.00002
3363.3,-0.00030
3351.73,-0.00040
3340.16,-0.00027
3328.59,-0.00004
3317.02,0.00007
3305.45,-0.00005
3293.88,-0.00010
3282.3,-0.00007
3270.73,-0.00008
3259.16,-0.00009
3247.59,-0.00022
3236.02,-0.00012
3224.45,0.00000
3212.88,-0.00008
3201.31,-0.00012
3189.74,-0.00008
3178.17,-0.00006
3166.59,0.00004
3155.02,-0.00019
3143.45,-0.00025
3131.88,-0.00012
3120.31,-0.00003
3108.74,0.00113
3097.17,0.00177
3085.6,0.00222
3074.03,0.00408
3062.46,0.00676
3050.88,0.00228
3039.31,0.00159
3027.74,0.00227
3016.17,0.00357
3004.6,0.00493
2993.03,0.00592
2981.46,0.00680
2969.89,0.00750
2958.32,0.00665
2946.75,0.00578
2935.17,0.00437
2923.6,0.00314
2912.03,0.00377
2900.46,0.00520
2888.89,0.00593
2877.32,0.00625
2865.75,0.00584
2854.18,0.00628
2842.61,0.00805
2831.04,0.00973
2819.46,0.01077
2807.89,0.00986
2796.32,0.00777
2784.75,0.00499
2773.18,0.00282
2761.61,0.00126
2750.04,-0.00011
2738.47,-0.00031
2726.9,-0.00015
2715.33,0.00003
2703.75,0.00019
2692.18,0.00284
2680.61,0.00766
2669.04,0.01158
2657.47,0.01196
2645.9,0.01005
2634.33,0.00796
2622.76,0.00638
2611.19,0.00547
2599.62,0.00544
2588.04,0.00594
2576.47,0.00776
2564.9,0.01347
2553.33,0.01848
2541.76,0.01973
2530.19,0.01799
2518.62,0.01482
2507.05,0.01162
2495.48,0.00881
2483.91,0.00656
2472.33,0.00497
2460.76,0.00402
2449.19,0.00309
2437.62,0.00232
2426.05,0.00195
2414.48,0.00189
2402.91,0.00206
2391.34,0.00222
2379.77,0.00208
2368.2,0.00032
2356.63,0.00011
2345.05,0.00060
2333.48,0.00008
2321.91,0.00064
2310.34,0.00129
2298.77,0.00165
2287.2,0.00160
2275.63,0.00101
2264.06,0.00050
2252.49,0.00004
2240.92,0.00005
2229.34,0.00024
2217.77,0.00018
2206.2,0.00001
2194.63,0.00030
2183.06,0.00009
2171.49,0.00093
2159.92,0.00000
2148.35,0.00265
2136.78,0.00419
2125.21,0.00586
2113.63,0.00640
2102.06,0.00613
2090.49,0.00565
2078.92,0.00527
2067.35,0.00465
2055.78,0.00386
2044.21,0.00164
2032.64,0.00001
2021.07,0.00010
2009.5,0.00011
1997.92,0.00076
1986.35,0.00052
1974.78,-0.00012
1963.21,0.00292
1951.64,0.00244
1940.07,0.00155
1928.5,0.00137
1916.93,0.00105
1905.36,0.00059
1893.79,0.00015
1882.21,0.00007
1870.64,0.00003
1859.07,0.00015
1847.5,0.00000
1835.93,0.00045
1824.36,0.00035
1812.79,0.00150
1801.22,0.00380
1789.65,0.00587
1778.08,0.00687
1766.5,0.00785
1754.93,0.01143
1743.36,0.02257
1731.79,0.05222
1720.22,0.10042
1708.65,0.12049
1697.08,0.16077
1685.51,0.23164
1673.94,0.24222
1662.37,0.12447
1650.79,0.07152
1639.22,0.04854
1627.65,0.03563
1616.08,0.03008
1604.51,0.02376
1592.94,0.01285
1581.37,0.01903
1569.8,0.02519
1558.23,0.00586
1546.66,0.00154
1535.08,0.00027
1523.51,0.00051
1511.94,0.02734
1500.37,0.00848
1488.8,0.00006
1477.23,0.00192
1465.66,0.00373
1454.09,0.00658
1442.52,0.01378
1430.95,0.04904
1419.37,0.06156
1407.8,0.06333
1396.23,0.02010
1384.66,0.01471
1373.09,0.00643
1361.52,0.00068
1349.95,0.00405
1338.38,0.04627
1326.81,0.02918
1315.24,0.04267
1303.66,0.06325
1292.09,0.09631
1280.52,0.11287
1268.95,0.11778
1257.38,0.13480
1245.81,0.16274
1234.24,0.15236
1222.67,0.12606
1211.1,0.10286
1199.53,0.08368
1187.95,0.06189
1176.38,0.04421
1164.81,0.02137
1153.24,0.00593
1141.67,0.01388
1130.1,0.07481
1118.53,0.10366
1106.96,0.11921
1095.39,0.11932
1083.82,0.10275
1072.25,0.08489
1060.67,0.06522
1049.1,0.04865
1037.53,0.03227
1025.96,0.01791
1014.39,0.07886
1002.82,0.04150
991.248,0.02928
979.677,0.02444
968.106,0.04216
956.535,0.04374
944.964,0.05119
933.393,0.05011
921.822,0.03511
910.251,0.02076
898.68,0.01198
887.109,0.00801
875.538,0.02922
863.967,0.01193
852.396,0.01126
840.825,0.01355
829.254,0.00399
817.683,0.00025
806.112,0.00009
794.541,0.00736
782.97,0.03178
771.399,0.01526
759.828,0.00711
748.257,0.00183
736.686,0.03252
725.115,0.14071
713.544,0.08493
701.973,0.04716
690.402,0.03153
678.831,0.02361
667.26,0.01593
655.689,0.00568
649.904,0.00000