Folder: projects/Exploratory-Data-Science/Model Testing of Backsheet Color and FTIR Data/FTIR/XENON1-FTIR (part 2)

File: Arkema XENON 2000HR PET 3.017-2.SPA.dpt
3999.71,0.00141
3988.13,0.00098
3976.56,0.00052
3964.99,0.00018
3953.42,0.00003
3941.85,-0.00012
3930.28,-0.00022
3918.71,-0.00011
3907.14,-0.00010
3895.57,-0.00008
3884,-0.00029
3872.42,-0.00027
3860.85,-0.00019
3849.28,-0.00002
3837.71,-0.00009
3826.14,-0.00014
3814.57,-0.00012
3803,-0.00003
3791.43,-0.00010
3779.86,-0.00027
3768.29,-0.00017
3756.72,-0.00010
3745.14,-0.00007
3733.57,0.00028
3722,-0.00001
3710.43,-0.00019
3698.86,0.00000
3687.29,-0.00014
3675.72,-0.00048
3664.15,-0.00058
3652.58,-0.00032
3641.01,0.00003
3629.43,0.00032
3617.86,0.00016
3606.29,0.00011
3594.72,0.00009
3583.15,-0.00007
3571.58,-0.00016
3560.01,-0.00023
3548.44,-0.00019
3536.87,-0.00007
3525.3,0.00001
3513.72,0.00007
3502.15,0.00010
3490.58,0.00025
3479.01,0.00013
3467.44,0.00017
3455.87,0.00011
3444.3,0.00010
3432.73,0.00049
3421.16,0.00030
3409.59,0.00003
3398.01,0.00010
3386.44,0.00022
3374.87,0.00037
3363.3,0.00000
3351.73,-0.00002
3340.16,0.00021
3328.59,0.00049
3317.02,0.00043
3305.45,0.00025
3293.88,0.00024
3282.3,0.00024
3270.73,0.00022
3259.16,0.00003
3247.59,-0.00013
3236.02,-0.00014
3224.45,0.00007
3212.88,-0.00008
3201.31,-0.00014
3189.74,-0.00007
3178.17,-0.00003
3166.59,-0.00006
3155.02,-0.00028
3143.45,-0.00027
3131.88,-0.00009
3120.31,-0.00003
3108.74,0.00195
3097.17,0.00304
3085.6,0.00386
3074.03,0.00657
3062.46,0.01025
3050.88,0.00415
3039.31,0.00335
3027.74,0.00443
3016.17,0.00651
3004.6,0.00839
2993.03,0.00981
2981.46,0.01120
2969.89,0.01224
2958.32,0.01103
2946.75,0.00972
2935.17,0.00780
2923.6,0.00632
2912.03,0.00709
2900.46,0.00883
2888.89,0.00979
2877.32,0.01007
2865.75,0.00957
2854.18,0.01014
2842.61,0.01235
2831.04,0.01437
2819.46,0.01563
2807.89,0.01404
2796.32,0.01093
2784.75,0.00699
2773.18,0.00388
2761.61,0.00165
2750.04,-0.00019
2738.47,-0.00042
2726.9,-0.00023
2715.33,0.00008
2703.75,0.00034
2692.18,0.00395
2680.61,0.01040
2669.04,0.01560
2657.47,0.01578
2645.9,0.01297
2634.33,0.00997
2622.76,0.00769
2611.19,0.00651
2599.62,0.00633
2588.04,0.00711
2576.47,0.00961
2564.9,0.01709
2553.33,0.02356
2541.76,0.02495
2530.19,0.02232
2518.62,0.01778
2507.05,0.01330
2495.48,0.00949
2483.91,0.00650
2472.33,0.00437
2460.76,0.00300
2449.19,0.00164
2437.62,0.00069
2426.05,0.00009
2414.48,0.00000
2402.91,0.00002
2391.34,0.00004
2379.77,0.00143
2368.2,0.01058
2356.63,0.01139
2345.05,0.00676
2333.48,0.00865
2321.91,0.00566
2310.34,0.00192
2298.77,0.00074
2287.2,0.00039
2275.63,0.00015
2264.06,0.00016
2252.49,0.00001
2240.92,0.00009
2229.34,0.00023
2217.77,0.00005
2206.2,-0.00001
2194.63,0.00034
2183.06,0.00004
2171.49,0.00087
2159.92,0.00000
2148.35,0.00282
2136.78,0.00460
2125.21,0.00638
2113.63,0.00678
2102.06,0.00652
2090.49,0.00615
2078.92,0.00564
2067.35,0.00479
2055.78,0.00420
2044.21,0.00158
2032.64,0.00000
2021.07,0.00002
2009.5,0.00005
1997.92,0.00055
1986.35,0.00032
1974.78,-0.00002
1963.21,0.00366
1951.64,0.00296
1940.07,0.00184
1928.5,0.00140
1916.93,0.00121
1905.36,0.00075
1893.79,0.00029
1882.21,0.00016
1870.64,0.00011
1859.07,0.00018
1847.5,0.00000
1835.93,0.00068
1824.36,0.00082
1812.79,0.00294
1801.22,0.00666
1789.65,0.01004
1778.08,0.01181
1766.5,0.01354
1754.93,0.01878
1743.36,0.03397
1731.79,0.07328
1720.22,0.14012
1708.65,0.16463
1697.08,0.21258
1685.51,0.30237
1673.94,0.30639
1662.37,0.15502
1650.79,0.08906
1639.22,0.06071
1627.65,0.04490
1616.08,0.03841
1604.51,0.03026
1592.94,0.01646
1581.37,0.02408
1569.8,0.03050
1558.23,0.00700
1546.66,0.00177
1535.08,0.00031
1523.51,0.00059
1511.94,0.03294
1500.37,0.01013
1488.8,0.00007
1477.23,0.00274
1465.66,0.00523
1454.09,0.00901
1442.52,0.01781
1430.95,0.05970
1419.37,0.07601
1407.8,0.07914
1396.23,0.02515
1384.66,0.01833
1373.09,0.00817
1361.52,0.00086
1349.95,0.00524
1338.38,0.05542
1326.81,0.03440
1315.24,0.05219
1303.66,0.07783
1292.09,0.12053
1280.52,0.14388
1268.95,0.15254
1257.38,0.17294
1245.81,0.20286
1234.24,0.18236
1222.67,0.14829
1211.1,0.11964
1199.53,0.09630
1187.95,0.07111
1176.38,0.05147
1164.81,0.02555
1153.24,0.00825
1141.67,0.01880
1130.1,0.09436
1118.53,0.12428
1106.96,0.14299
1095.39,0.13809
1083.82,0.11477
1072.25,0.09162
1060.67,0.06834
1049.1,0.05007
1037.53,0.03294
1025.96,0.02150
1014.39,0.08553
1002.82,0.04125
991.248,0.02895
979.677,0.02507
968.106,0.04572
956.535,0.04676
944.964,0.05522
933.393,0.05395
921.822,0.03717
910.251,0.02122
898.68,0.01171
887.109,0.00819
875.538,0.03382
863.967,0.01376
852.396,0.01352
840.825,0.01500
829.254,0.00397
817.683,0.00010
806.112,0.00026
794.541,0.00907
782.97,0.03514
771.399,0.01681
759.828,0.00777
748.257,0.00165
736.686,0.03922
725.115,0.16551
713.544,0.09749
701.973,0.05167
690.402,0.03386
678.831,0.02539
667.26,0.01904
655.689,0.00588
649.904,0.00000

File: Arkema XENON 2000HR PET 3.019-1.SPA.dpt
3999.71,0.00115
3988.13,0.00072
3976.56,0.00042
3964.99,0.00029
3953.42,0.00005
3941.85,-0.00007
3930.28,-0.00018
3918.71,-0.00009
3907.14,-0.00008
3895.57,-0.00003
3884,-0.00021
3872.42,-0.00018
3860.85,-0.00020
3849.28,-0.00004
3837.71,-0.00001
3826.14,-0.00014
3814.57,-0.00015
3803,-0.00008
3791.43,-0.00005
3779.86,-0.00011
3768.29,-0.00004
3756.72,-0.00003
3745.14,-0.00006
3733.57,0.00001
3722,-0.00019
3710.43,-0.00021
3698.86,-0.00006
3687.29,-0.00008
3675.72,-0.00029
3664.15,-0.00036
3652.58,-0.00024
3641.01,0.00000
3629.43,0.00004
3617.86,0.00003
3606.29,0.00002
3594.72,-0.00003
3583.15,0.00004
3571.58,-0.00009
3560.01,-0.00016
3548.44,-0.00011
3536.87,-0.00005
3525.3,-0.00004
3513.72,-0.00000
3502.15,0.00004
3490.58,0.00005
3479.01,0.00004
3467.44,-0.00010
3455.87,-0.00014
3444.3,-0.00029
3432.73,-0.00000
3421.16,-0.00018
3409.59,-0.00015
3398.01,-0.00016
3386.44,-0.00008
3374.87,-0.00003
3363.3,-0.00012
3351.73,-0.00021
3340.16,-0.00014
3328.59,0.00000
3317.02,0.00009
3305.45,-0.00005
3293.88,-0.00004
3282.3,0.00003
3270.73,-0.00002
3259.16,-0.00006
3247.59,-0.00022
3236.02,-0.00022
3224.45,-0.00006
3212.88,-0.00009
3201.31,-0.00008
3189.74,-0.00005
3178.17,-0.00009
3166.59,-0.00002
3155.02,-0.00019
3143.45,-0.00020
3131.88,-0.00008
3120.31,-0.00003
3108.74,0.00078
3097.17,0.00147
3085.6,0.00198
3074.03,0.00381
3062.46,0.00671
3050.88,0.00253
3039.31,0.00175
3027.74,0.00230
3016.17,0.00359
3004.6,0.00486
2993.03,0.00598
2981.46,0.00704
2969.89,0.00785
2958.32,0.00728
2946.75,0.00653
2935.17,0.00534
2923.6,0.00421
2912.03,0.00461
2900.46,0.00588
2888.89,0.00667
2877.32,0.00708
2865.75,0.00675
2854.18,0.00722
2842.61,0.00899
2831.04,0.01071
2819.46,0.01196
2807.89,0.01131
2796.32,0.00923
2784.75,0.00642
2773.18,0.00396
2761.61,0.00210
2750.04,0.00047
2738.47,0.00001
2726.9,0.00012
2715.33,0.00028
2703.75,0.00035
2692.18,0.00286
2680.61,0.00777
2669.04,0.01220
2657.47,0.01301
2645.9,0.01129
2634.33,0.00915
2622.76,0.00741
2611.19,0.00633
2599.62,0.00605
2588.04,0.00636
2576.47,0.00800
2564.9,0.01383
2553.33,0.01947
2541.76,0.02126
2530.19,0.01986
2518.62,0.01664
2507.05,0.01315
2495.48,0.00993
2483.91,0.00736
2472.33,0.00529
2460.76,0.00398
2449.19,0.00260
2437.62,0.00150
2426.05,0.00079
2414.48,0.00035
2402.91,0.00021
2391.34,0.00004
2379.77,0.00003
2368.2,0.00053
2356.63,0.00054
2345.05,0.00030
2333.48,0.00060
2321.91,0.00050
2310.34,0.00037
2298.77,0.00047
2287.2,0.00063
2275.63,0.00051
2264.06,0.00018
2252.49,0.00007
2240.92,0.00005
2229.34,0.00015
2217.77,0.00014
2206.2,-0.00000
2194.63,0.00040
2183.06,0.00006
2171.49,0.00101
2159.92,0.00000
2148.35,0.00267
2136.78,0.00423
2125.21,0.00579
2113.63,0.00631
2102.06,0.00608
2090.49,0.00572
2078.92,0.00535
2067.35,0.00465
2055.78,0.00389
2044.21,0.00156
2032.64,0.00011
2021.07,0.00000
2009.5,0.00007
1997.92,0.00055
1986.35,0.00029
1974.78,-0.00019
1963.21,0.00237
1951.64,0.00230
1940.07,0.00154
1928.5,0.00132
1916.93,0.00105
1905.36,0.00062
1893.79,0.00015
1882.21,0.00006
1870.64,0.00002
1859.07,0.00015
1847.5,0.00000
1835.93,0.00063
1824.36,0.00061
1812.79,0.00184
1801.22,0.00428
1789.65,0.00642
1778.08,0.00748
1766.5,0.00842
1754.93,0.01199
1743.36,0.02265
1731.79,0.05074
1720.22,0.09120
1708.65,0.10275
1697.08,0.13913
1685.51,0.20426
1673.94,0.22542
1662.37,0.11764
1650.79,0.06721
1639.22,0.04541
1627.65,0.03328
1616.08,0.02789
1604.51,0.02196
1592.94,0.01151
1581.37,0.01810
1569.8,0.02624
1558.23,0.00569
1546.66,0.00142
1535.08,0.00023
1523.51,0.00057
1511.94,0.02799
1500.37,0.00864
1488.8,0.00012
1477.23,0.00138
1465.66,0.00326
1454.09,0.00628
1442.52,0.01333
1430.95,0.04737
1419.37,0.06450
1407.8,0.06284
1396.23,0.02077
1384.66,0.01474
1373.09,0.00642
1361.52,0.00078
1349.95,0.00356
1338.38,0.04502
1326.81,0.02887
1315.24,0.04214
1303.66,0.05835
1292.09,0.09294
1280.52,0.10434
1268.95,0.10756
1257.38,0.12493
1245.81,0.15596
1234.24,0.15223
1222.67,0.12906
1211.1,0.10733
1199.53,0.08873
1187.95,0.06659
1176.38,0.04769
1164.81,0.02374
1153.24,0.00687
1141.67,0.01234
1130.1,0.06828
1118.53,0.10118
1106.96,0.11454
1095.39,0.11809
1083.82,0.10350
1072.25,0.08714
1060.67,0.06888
1049.1,0.05224
1037.53,0.03494
1025.96,0.01622
1014.39,0.08350
1002.82,0.04762
991.248,0.03432
979.677,0.02828
968.106,0.04508
956.535,0.04723
944.964,0.05307
933.393,0.05094
921.822,0.03661
910.251,0.02298
898.68,0.01434
887.109,0.01009
875.538,0.02838
863.967,0.01220
852.396,0.01073
840.825,0.01337
829.254,0.00429
817.683,0.00031
806.112,0.00004
794.541,0.00670
782.97,0.03211
771.399,0.01678
759.828,0.00729
748.257,0.00114
736.686,0.03154
725.115,0.12937
713.544,0.07735
701.973,0.04242
690.402,0.02824
678.831,0.02116
667.26,0.01489
655.689,0.00503
649.904,0.00000

File: Arkema XENON 3800HR PET 3.005-2.SPA.dpt
3999.71,0.00073
3988.13,0.00043
3976.56,0.00022
3964.99,0.00009
3953.42,-0.00003
3941.85,-0.00017
3930.28,-0.00017
3918.71,-0.00009
3907.14,-0.00007
3895.57,-0.00002
3884,-0.00006
3872.42,-0.00009
3860.85,-0.00000
3849.28,0.00003
3837.71,0.00015
3826.14,-0.00000
3814.57,0.00001
3803,-0.00005
3791.43,-0.00007
3779.86,-0.00000
3768.29,-0.00014
3756.72,-0.00005
3745.14,0.00015
3733.57,0.00009
3722,-0.00007
3710.43,-0.00005
3698.86,-0.00004
3687.29,0.00002
3675.72,0.00004
3664.15,-0.00018
3652.58,-0.00010
3641.01,0.00010
3629.43,0.00021
3617.86,0.00018
3606.29,0.00001
3594.72,0.00009
3583.15,0.00003
3571.58,0.00003
3560.01,0.00003
3548.44,0.00003
3536.87,0.00012
3525.3,0.00010
3513.72,0.00005
3502.15,-0.00005
3490.58,-0.00001
3479.01,-0.00004
3467.44,-0.00010
3455.87,-0.00013
3444.3,-0.00013
3432.73,0.00000
3421.16,-0.00001
3409.59,-0.00011
3398.01,0.00002
3386.44,0.00000
3374.87,0.00007
3363.3,-0.00014
3351.73,-0.00022
3340.16,-0.00005
3328.59,0.00001
3317.02,0.00000
3305.45,-0.00007
3293.88,0.00000
3282.3,-0.00006
3270.73,-0.00001
3259.16,-0.00008
3247.59,-0.00007
3236.02,-0.00011
3224.45,0.00002
3212.88,-0.00004
3201.31,-0.00004
3189.74,-0.00008
3178.17,-0.00004
3166.59,0.00000
3155.02,-0.00016
3143.45,-0.00009
3131.88,-0.00007
3120.31,0.00000
3108.74,0.00064
3097.17,0.00107
3085.6,0.00141
3074.03,0.00263
3062.46,0.00437
3050.88,0.00140
3039.31,0.00115
3027.74,0.00155
3016.17,0.00232
3004.6,0.00313
2993.03,0.00366
2981.46,0.00414
2969.89,0.00420
2958.32,0.00333
2946.75,0.00275
2935.17,0.00137
2923.6,0.00000
2912.03,0.00131
2900.46,0.00242
2888.89,0.00307
2877.32,0.00315
2865.75,0.00279
2854.18,0.00239
2842.61,0.00443
2831.04,0.00560
2819.46,0.00629
2807.89,0.00567
2796.32,0.00439
2784.75,0.00276
2773.18,0.00154
2761.61,0.00064
2750.04,-0.00008
2738.47,-0.00019
2726.9,-0.00004
2715.33,0.00006
2703.75,0.00009
2692.18,0.00166
2680.61,0.00453
2669.04,0.00667
2657.47,0.00657
2645.9,0.00531
2634.33,0.00388
2622.76,0.00283
2611.19,0.00220
2599.62,0.00206
2588.04,0.00215
2576.47,0.00316
2564.9,0.00666
2553.33,0.00952
2541.76,0.01012
2530.19,0.00892
2518.62,0.00701
2507.05,0.00509
2495.48,0.00344
2483.91,0.00229
2472.33,0.00135
2460.76,0.00086
2449.19,0.00034
2437.62,0.00013
2426.05,0.00005
2414.48,0.00004
2402.91,0.00009
2391.34,0.00005
2379.77,0.00003
2368.2,0.00037
2356.63,0.00034
2345.05,0.00024
2333.48,0.00044
2321.91,0.00043
2310.34,0.00028
2298.77,0.00036
2287.2,0.00045
2275.63,0.00022
2264.06,0.00016
2252.49,0.00000
2240.92,-0.00001
2229.34,0.00021
2217.77,0.00014
2206.2,0.00002
2194.63,0.00023
2183.06,0.00016
2171.49,0.00066
2159.92,0.00000
2148.35,0.00229
2136.78,0.00342
2125.21,0.00448
2113.63,0.00464
2102.06,0.00432
2090.49,0.00431
2078.92,0.00397
2067.35,0.00344
2055.78,0.00309
2044.21,0.00129
2032.64,0.00009
2021.07,0.00026
2009.5,0.00038
1997.92,0.00050
1986.35,0.00035
1974.78,0.00000
1963.21,0.00187
1951.64,0.00183
1940.07,0.00125
1928.5,0.00108
1916.93,0.00091
1905.36,0.00059
1893.79,0.00030
1882.21,0.00017
1870.64,0.00014
1859.07,0.00017
1847.5,0.00000
1835.93,0.00021
1824.36,-0.00002
1812.79,0.00046
1801.22,0.00156
1789.65,0.00240
1778.08,0.00260
1766.5,0.00285
1754.93,0.00460
1743.36,0.01087
1731.79,0.02879
1720.22,0.05813
1708.65,0.07303
1697.08,0.10594
1685.51,0.14306
1673.94,0.13139
1662.37,0.06320
1650.79,0.03543
1639.22,0.02319
1627.65,0.01650
1616.08,0.01392
1604.51,0.01080
1592.94,0.00547
1581.37,0.01012
1569.8,0.01440
1558.23,0.00315
1546.66,0.00080
1535.08,0.00023
1523.51,0.00028
1511.94,0.01814
1500.37,0.00482
1488.8,0.00003
1477.23,0.00102
1465.66,0.00200
1454.09,0.00368
1442.52,0.00858
1430.95,0.03363
1419.37,0.04079
1407.8,0.03930
1396.23,0.01240
1384.66,0.00913
1373.09,0.00378
1361.52,0.00041
1349.95,0.00254
1338.38,0.03081
1326.81,0.01981
1315.24,0.02839
1303.66,0.04302
1292.09,0.06498
1280.52,0.07141
1268.95,0.07153
1257.38,0.08306
1245.81,0.10145
1234.24,0.09505
1222.67,0.07938
1211.1,0.06638
1199.53,0.05645
1187.95,0.04294
1176.38,0.02971
1164.81,0.01352
1153.24,0.00356
1141.67,0.01019
1130.1,0.05149
1118.53,0.07171
1106.96,0.08022
1095.39,0.08260
1083.82,0.07567
1072.25,0.06397
1060.67,0.04891
1049.1,0.03573
1037.53,0.02237
1025.96,0.00963
1014.39,0.05487
1002.82,0.02977
991.248,0.02010
979.677,0.01570
968.106,0.02765
956.535,0.02920
944.964,0.03375
933.393,0.03253
921.822,0.02280
910.251,0.01357
898.68,0.00770
887.109,0.00462
875.538,0.01771
863.967,0.00723
852.396,0.00751
840.825,0.01149
829.254,0.00700
817.683,0.00329
806.112,0.00000
794.541,0.00315
782.97,0.02261
771.399,0.01221
759.828,0.00754
748.257,0.00332
736.686,0.01296
725.115,0.08536
713.544,0.06766
701.973,0.04700
690.402,0.03515
678.831,0.02641
667.26,0.01871
655.689,0.00642
649.904,0.00000

File: Arkema XENON 3800HR PET 3.024-1.SPA.dpt
3999.71,0.00101
3988.13,0.00063
3976.56,0.00032
3964.99,0.00019
3953.42,0.00004
3941.85,-0.00012
3930.28,-0.00009
3918.71,-0.00008
3907.14,-0.00013
3895.57,0.00002
3884,-0.00007
3872.42,-0.00007
3860.85,-0.00014
3849.28,-0.00001
3837.71,0.00007
3826.14,-0.00000
3814.57,-0.00003
3803,-0.00007
3791.43,-0.00006
3779.86,-0.00002
3768.29,-0.00010
3756.72,-0.00004
3745.14,0.00012
3733.57,0.00009
3722,-0.00011
3710.43,-0.00012
3698.86,-0.00012
3687.29,-0.00002
3675.72,-0.00009
3664.15,-0.00045
3652.58,-0.00028
3641.01,-0.00003
3629.43,-0.00000
3617.86,-0.00002
3606.29,-0.00011
3594.72,-0.00009
3583.15,-0.00002
3571.58,-0.00012
3560.01,-0.00014
3548.44,-0.00010
3536.87,0.00007
3525.3,0.00006
3513.72,-0.00003
3502.15,-0.00003
3490.58,-0.00004
3479.01,-0.00010
3467.44,-0.00011
3455.87,-0.00014
3444.3,-0.00001
3432.73,0.00012
3421.16,-0.00001
3409.59,-0.00012
3398.01,-0.00007
3386.44,-0.00010
3374.87,0.00005
3363.3,-0.00020
3351.73,-0.00027
3340.16,-0.00002
3328.59,0.00007
3317.02,0.00004
3305.45,0.00003
3293.88,0.00004
3282.3,0.00007
3270.73,-0.00007
3259.16,-0.00021
3247.59,-0.00021
3236.02,-0.00009
3224.45,-0.00006
3212.88,-0.00010
3201.31,-0.00009
3189.74,-0.00001
3178.17,-0.00001
3166.59,-0.00004
3155.02,-0.00015
3143.45,-0.00013
3131.88,0.00010
3120.31,0.00011
3108.74,0.00145
3097.17,0.00229
3085.6,0.00320
3074.03,0.00550
3062.46,0.00859
3050.88,0.00379
3039.31,0.00326
3027.74,0.00411
3016.17,0.00566
3004.6,0.00709
2993.03,0.00820
2981.46,0.00926
2969.89,0.00982
2958.32,0.00852
2946.75,0.00755
2935.17,0.00565
2923.6,0.00390
2912.03,0.00496
2900.46,0.00684
2888.89,0.00786
2877.32,0.00813
2865.75,0.00768
2854.18,0.00765
2842.61,0.01006
2831.04,0.01192
2819.46,0.01294
2807.89,0.01169
2796.32,0.00927
2784.75,0.00613
2773.18,0.00368
2761.61,0.00181
2750.04,0.00032
2738.47,-0.00006
2726.9,0.00012
2715.33,0.00036
2703.75,0.00045
2692.18,0.00340
2680.61,0.00866
2669.04,0.01276
2657.47,0.01303
2645.9,0.01097
2634.33,0.00861
2622.76,0.00687
2611.19,0.00602
2599.62,0.00586
2588.04,0.00629
2576.47,0.00827
2564.9,0.01454
2553.33,0.01957
2541.76,0.02071
2530.19,0.01871
2518.62,0.01532
2507.05,0.01190
2495.48,0.00892
2483.91,0.00674
2472.33,0.00503
2460.76,0.00394
2449.19,0.00301
2437.62,0.00225
2426.05,0.00179
2414.48,0.00157
2402.91,0.00154
2391.34,0.00152
2379.77,0.00141
2368.2,0.00025
2356.63,0.00005
2345.05,0.00037
2333.48,0.00011
2321.91,0.00061
2310.34,0.00102
2298.77,0.00130
2287.2,0.00134
2275.63,0.00073
2264.06,0.00033
2252.49,0.00005
2240.92,-0.00000
2229.34,0.00030
2217.77,0.00008
2206.2,0.00002
2194.63,0.00037
2183.06,0.00028
2171.49,0.00077
2159.92,0.00022
2148.35,0.00277
2136.78,0.00443
2125.21,0.00578
2113.63,0.00618
2102.06,0.00593
2090.49,0.00567
2078.92,0.00518
2067.35,0.00457
2055.78,0.00390
2044.21,0.00178
2032.64,0.00012
2021.07,0.00022
2009.5,0.00034
1997.92,0.00062
1986.35,0.00036
1974.78,0.00000
1963.21,0.00264
1951.64,0.00227
1940.07,0.00153
1928.5,0.00120
1916.93,0.00103
1905.36,0.00061
1893.79,0.00025
1882.21,0.00000
1870.64,-0.00003
1859.07,0.00006
1847.5,-0.00014
1835.93,0.00049
1824.36,0.00059
1812.79,0.00186
1801.22,0.00417
1789.65,0.00607
1778.08,0.00680
1766.5,0.00763
1754.93,0.01118
1743.36,0.02228
1731.79,0.05270
1720.22,0.10171
1708.65,0.11760
1697.08,0.16394
1685.51,0.22187
1673.94,0.20069
1662.37,0.09331
1650.79,0.05212
1639.22,0.03443
1627.65,0.02486
1616.08,0.02126
1604.51,0.01643
1592.94,0.00849
1581.37,0.01562
1569.8,0.02132
1558.23,0.00456
1546.66,0.00105
1535.08,0.00014
1523.51,0.00056
1511.94,0.02701
1500.37,0.00729
1488.8,0.00007
1477.23,0.00151
1465.66,0.00309
1454.09,0.00579
1442.52,0.01291
1430.95,0.04791
1419.37,0.06053
1407.8,0.05887
1396.23,0.01855
1384.66,0.01370
1373.09,0.00573
1361.52,0.00057
1349.95,0.00421
1338.38,0.04629
1326.81,0.02855
1315.24,0.04173
1303.66,0.06134
1292.09,0.09572
1280.52,0.10785
1268.95,0.11215
1257.38,0.12927
1245.81,0.15397
1234.24,0.14079
1222.67,0.11673
1211.1,0.09656
1199.53,0.08128
1187.95,0.06167
1176.38,0.04304
1164.81,0.02063
1153.24,0.00752
1141.67,0.01731
1130.1,0.07805
1118.53,0.10524
1106.96,0.11612
1095.39,0.11619
1083.82,0.10391
1072.25,0.08609
1060.67,0.06478
1049.1,0.04710
1037.53,0.02973
1025.96,0.01576
1014.39,0.07480
1002.82,0.03957
991.248,0.02709
979.677,0.02191
968.106,0.03829
956.535,0.03948
944.964,0.04503
933.393,0.04318
921.822,0.03027
910.251,0.01805
898.68,0.01044
887.109,0.00677
875.538,0.02486
863.967,0.01044
852.396,0.01065
840.825,0.01461
829.254,0.00808
817.683,0.00469
806.112,0.00108
794.541,0.00562
782.97,0.02992
771.399,0.01659
759.828,0.01014
748.257,0.00412
736.686,0.01622
725.115,0.10762
713.544,0.08647
701.973,0.05959
690.402,0.04429
678.831,0.03330
667.26,0.02333
655.689,0.00820
649.904,0.00000

File: Arkema XENON 3800HR PET 3.024-2.SPA.dpt
3999.71,0.00097
3988.13,0.00062
3976.56,0.00038
3964.99,0.00026
3953.42,0.00004
3941.85,-0.00009
3930.28,-0.00018
3918.71,-0.00013
3907.14,-0.00017
3895.57,-0.00002
3884,-0.00010
3872.42,-0.00010
3860.85,-0.00013
3849.28,0.00000
3837.71,0.00013
3826.14,-0.00006
3814.57,-0.00006
3803,-0.00009
3791.43,-0.00011
3779.86,-0.00003
3768.29,-0.00024
3756.72,-0.00017
3745.14,-0.00003
3733.57,0.00014
3722,-0.00011
3710.43,-0.00007
3698.86,-0.00005
3687.29,-0.00012
3675.72,-0.00016
3664.15,-0.00048
3652.58,-0.00035
3641.01,-0.00005
3629.43,0.00028
3617.86,0.00006
3606.29,-0.00008
3594.72,0.00003
3583.15,-0.00002
3571.58,-0.00009
3560.01,-0.00004
3548.44,-0.00003
3536.87,0.00006
3525.3,0.00007
3513.72,0.00002
3502.15,-0.00003
3490.58,0.00008
3479.01,-0.00005
3467.44,0.00003
3455.87,-0.00006
3444.3,0.00003
3432.73,0.00014
3421.16,-0.00001
3409.59,-0.00007
3398.01,-0.00011
3386.44,-0.00013
3374.87,0.00000
3363.3,-0.00028
3351.73,-0.00032
3340.16,-0.00011
3328.59,-0.00002
3317.02,-0.00000
3305.45,-0.00007
3293.88,0.00004
3282.3,-0.00002
3270.73,-0.00009
3259.16,-0.00014
3247.59,-0.00014
3236.02,-0.00007
3224.45,-0.00003
3212.88,-0.00009
3201.31,-0.00012
3189.74,-0.00007
3178.17,0.00003
3166.59,-0.00002
3155.02,-0.00017
3143.45,-0.00006
3131.88,-0.00000
3120.31,0.00000
3108.74,0.00107
3097.17,0.00168
3085.6,0.00231
3074.03,0.00406
3062.46,0.00657
3050.88,0.00252
3039.31,0.00200
3027.74,0.00271
3016.17,0.00399
3004.6,0.00512
2993.03,0.00594
2981.46,0.00674
2969.89,0.00725
2958.32,0.00595
2946.75,0.00510
2935.17,0.00326
2923.6,0.00149
2912.03,0.00262
2900.46,0.00447
2888.89,0.00535
2877.32,0.00558
2865.75,0.00523
2854.18,0.00507
2842.61,0.00734
2831.04,0.00904
2819.46,0.01001
2807.89,0.00906
2796.32,0.00709
2784.75,0.00458
2773.18,0.00255
2761.61,0.00111
2750.04,-0.00006
2738.47,-0.00028
2726.9,-0.00011
2715.33,0.00009
2703.75,0.00019
2692.18,0.00260
2680.61,0.00690
2669.04,0.01025
2657.47,0.01037
2645.9,0.00854
2634.33,0.00647
2622.76,0.00494
2611.19,0.00413
2599.62,0.00393
2588.04,0.00418
2576.47,0.00582
2564.9,0.01095
2553.33,0.01527
2541.76,0.01613
2530.19,0.01440
2518.62,0.01155
2507.05,0.00862
2495.48,0.00603
2483.91,0.00420
2472.33,0.00268
2460.76,0.00178
2449.19,0.00101
2437.62,0.00042
2426.05,0.00015
2414.48,-0.00003
2402.91,0.00005
2391.34,0.00000
2379.77,0.00069
2368.2,0.00499
2356.63,0.00539
2345.05,0.00334
2333.48,0.00429
2321.91,0.00304
2310.34,0.00116
2298.77,0.00069
2287.2,0.00057
2275.63,0.00036
2264.06,0.00025
2252.49,-0.00000
2240.92,0.00003
2229.34,0.00006
2217.77,0.00004
2206.2,0.00011
2194.63,0.00016
2183.06,0.00028
2171.49,0.00066
2159.92,0.00001
2148.35,0.00283
2136.78,0.00454
2125.21,0.00588
2113.63,0.00610
2102.06,0.00578
2090.49,0.00548
2078.92,0.00498
2067.35,0.00440
2055.78,0.00375
2044.21,0.00146
2032.64,0.00002
2021.07,0.00009
2009.5,0.00014
1997.92,0.00058
1986.35,0.00033
1974.78,-0.00012
1963.21,0.00231
1951.64,0.00229
1940.07,0.00153
1928.5,0.00114
1916.93,0.00101
1905.36,0.00061
1893.79,0.00021
1882.21,0.00011
1870.64,0.00008
1859.07,0.00018
1847.5,-0.00000
1835.93,0.00055
1824.36,0.00060
1812.79,0.00169
1801.22,0.00369
1789.65,0.00534
1778.08,0.00601
1766.5,0.00679
1754.93,0.01002
1743.36,0.02007
1731.79,0.04762
1720.22,0.09162
1708.65,0.10691
1697.08,0.14849
1685.51,0.19989
1673.94,0.18154
1662.37,0.08520
1650.79,0.04755
1639.22,0.03128
1627.65,0.02244
1616.08,0.01915
1604.51,0.01476
1592.94,0.00753
1581.37,0.01395
1569.8,0.01898
1558.23,0.00401
1546.66,0.00085
1535.08,0.00011
1523.51,0.00054
1511.94,0.02418
1500.37,0.00670
1488.8,0.00006
1477.23,0.00138
1465.66,0.00272
1454.09,0.00510
1442.52,0.01156
1430.95,0.04307
1419.37,0.05396
1407.8,0.05335
1396.23,0.01666
1384.66,0.01240
1373.09,0.00516
1361.52,0.00051
1349.95,0.00385
1338.38,0.04267
1326.81,0.02559
1315.24,0.03741
1303.66,0.05541
1292.09,0.08551
1280.52,0.09693
1268.95,0.10196
1257.38,0.11794
1245.81,0.14138
1234.24,0.12976
1222.67,0.10734
1211.1,0.08876
1199.53,0.07468
1187.95,0.05641
1176.38,0.03905
1164.81,0.01817
1153.24,0.00584
1141.67,0.01488
1130.1,0.07126
1118.53,0.09682
1106.96,0.10709
1095.39,0.10773
1083.82,0.09646
1072.25,0.07978
1060.67,0.05983
1049.1,0.04317
1037.53,0.02692
1025.96,0.01348
1014.39,0.06944
1002.82,0.03655
991.248,0.02476
979.677,0.01981
968.106,0.03526
956.535,0.03627
944.964,0.04112
933.393,0.03919
921.822,0.02719
910.251,0.01586
898.68,0.00877
887.109,0.00550
875.538,0.02230
863.967,0.00881
852.396,0.00911
840.825,0.01298
829.254,0.00673
817.683,0.00342
806.112,0.00001
794.541,0.00441
782.97,0.02699
771.399,0.01461
759.828,0.00877
748.257,0.00345
736.686,0.01696
725.115,0.10689
713.544,0.08285
701.973,0.05641
690.402,0.04186
678.831,0.03141
667.26,0.02302
655.689,0.00762
649.904,0.00000